time,accel_x,accel_y,accel_z,temperature
0.0,0.04967141530112327,-0.11140813582330876,0.11748140575856919,25.160917595011384
0.010001666944490749,0.03641434794648565,0.04985566162359725,-0.12522108657426761,24.621889534825517
0.020003333888981498,0.16505206645185347,0.1306885965642881,0.09158572722539711,25.37081445946458
0.030005000833472247,0.3022327289219443,0.2800440573817417,0.17992548829962607,24.742522316644266
0.040006667777962995,0.1755690350286959,0.42040454645950404,0.2425044148123848,25.42504608593953
0.050008334722453744,0.223839743868964,0.6285880360244345,0.31198459723393457,24.925776249018018
0.06001000166694449,0.4524676665711544,0.6109717544039435,0.4033633423264946,24.21486936205867
0.07001166861143523,0.4174199759266686,0.5770301651357546,0.38176260674927726,24.596742765422203
0.08001333555592599,0.33851423976237954,0.9355732494788247,0.3854030254120408,24.885298018800157
0.09001500250041675,0.4829811098749391,0.8165364688128179,0.4116947191689395,25.79715040339626
0.10001666944490749,0.42395421732055616,0.9650591519367343,0.4144090330887673,25.576173760423625
0.11001833638939823,0.4634372302967495,1.0776496325194787,0.56991953313437,25.950073744754132
0.12002000333388899,0.5719072037094759,1.10584981056406,0.4343683923056357,25.977496284573082
0.13002167027837974,0.39192143752243824,1.2385578735568923,0.5836819071574588,24.89583296170831
0.14002333722287047,0.4439935777947964,1.2102657182335765,0.4930160363557144,25.081488176234952
0.15002500416736123,0.5910587101740342,1.099139256009243,0.42335420562119713,24.982607946163693
0.16002667111185198,0.5742510537688118,1.4155071940070554,0.5141828705015711,24.865001473710077
0.17002833805634274,0.7325386884311108,1.218831108976487,0.3493231378057776,24.29251036154777
0.1800300050008335,0.6331234382637335,1.1757610396589573,0.44895482645764817,25.218376375206436
0.19003167194532422,0.6026494094839322,1.2674144652744974,0.3634010727101756,24.595451040153982
0.20003333888981498,0.90746185816032,1.1660963417293513,0.23409066308245444,25.233622090837297
0.21003500583430573,0.7523326392142137,1.1410710766853127,0.29354755325698956,26.32105773015708
0.22003667277879646,0.7926171415914859,1.3005865412614361,0.23850698854166935,25.020953677924524
0.23003833972328722,0.6512410731789653,0.9647407553861259,0.239863562332578,25.38545624473877
0.24004000666777797,0.7439957119527412,0.8925513243218453,0.15903192292911084,25.75382507439205
0.2500416736122687,0.8110922315462782,0.8598526514193506,0.04886555905629273,25.45306629981738
0.2600433405567595,0.6833083162683848,0.8716826348627763,-0.17569587204593895,25.471570162462108
0.2700450075012502,0.8312331767153058,0.5234255868249265,0.12023986904950304,25.156521418626177
0.28004667444574094,0.7257219360156831,0.3810861829888306,-0.3246965359233408,25.23416487776215
0.2900483413902317,0.7456366889433687,0.41736412987957805,-0.14621664272324172,24.882466007911965
0.30005000833472245,0.7005968368679565,0.20689015673731687,-0.2510183889611636,25.797846862647557
0.31005167527921323,0.9289533482352581,0.21871836531546188,-0.45992440346811997,24.51641681673523
0.32005334222370396,0.7223977158096587,0.20005130166456397,-0.3979002671423289,25.885029811458406
0.3300550091681947,0.5951410013719883,-0.05200381254653752,-0.4302243498096473,24.709943670852283
0.3400566761126855,0.757564139655262,-0.21867099721592576,-0.32200676267751505,25.905387458923396
0.3500583430571762,0.5249568106531817,-0.1814393341158559,-0.5469724998853073,25.259449269753922
0.360060010001667,0.6371046353161987,-0.21283084298144989,-0.5174086392154532,24.832680667356808
0.3700616769461577,0.3869956210020463,-0.576639090651349,-0.7326445078969483,25.75050359606903
0.38006334389064844,0.41458693205575226,-0.42956003934287323,-0.3255119360970159,25.937459103369275
0.3900650108351392,0.529373484456694,-0.529751828896809,-0.5981137451726142,25.266238391650635
0.40006667777962995,0.5438036691861755,-0.6105437393438414,-0.44270754249818456,25.85776620559204
0.4100683447241207,0.4455081658159893,-0.6723058585479247,-0.4623713031380792,24.367082254014377
0.42007001166861146,0.3735296865188298,-0.6551028034819644,-0.4317281878570422,24.861469800761512
0.4300716786131022,0.31018702358530914,-0.9842918662300902,-0.303983190006215,26.180095249781992
0.4400733455575929,0.14630462651974602,-1.002680588836654,-0.17481122097835455,25.434157902240045
0.4500750125020837,0.17487054758935955,-1.111236557676712,-0.26836182481025617,24.62696606886867
0.46007667944657443,0.1525146857065528,-1.1158530536899702,-0.17494672670468925,25.22069779552456
0.4700783463910652,0.2552304197203785,-0.9993119806259693,-0.1507153372153656,25.120466287839893
0.48008001333555594,0.13422938365793613,-1.3134153809683093,-0.022104794259713845,25.511198306122427
0.49008168028004667,-0.126481366212646,-1.2808659063224885,-0.10844905630613963,25.42079286271423
0.5000833472245374,0.03198944811334261,-1.062281536115997,0.10806274140250283,25.707599463378784
0.5100850141690282,-0.089167121066826,-1.0925798393853723,0.17424651525352114,25.595341406402706
0.520086681113519,-0.16839104311069608,-1.2148737747711649,0.23312609341460303,26.321860010473603
0.5300883480580096,-0.08917361946191525,-1.0666330572965637,0.11856350170760055,25.86615528042966
0.5400900150025004,-0.09629017537904917,-1.0812350297308662,0.22453854177405155,25.894581561073036
0.5500916819469912,-0.15452383097878025,-0.9187092270099128,0.31830516788261104,26.26016280106444
0.5600933488914819,-0.3788576160281195,-1.005176459446223,0.205616673679158,25.49501158875895
0.5700950158359727,-0.3719767570341026,-0.8449637911225163,0.5451289109496777,25.070241741904542
0.5800966827804634,-0.35270239310199986,-0.6098122763247829,0.42126149956574344,26.316422434876454
0.5900983497249542,-0.331524243046849,-0.732929626656184,0.4810690795280589,25.79258680066399
0.6001000166694449,-0.5185522568241985,-0.6994940437512084,0.4180216320059816,25.8060415665005
0.6101016836139357,-0.528898808235341,-0.5376148541388056,0.3585751857936068,25.43137195756714
0.6201033505584265,-0.6586497633526165,-0.5464053707476861,0.43865072912928993,25.451250666498822
0.6301050175029171,-0.7031567930400177,-0.16657103193534012,0.5208919164794108,26.194650916355183
0.6401066844474079,-0.5354996949677466,-0.27925194419706545,0.5583604602131875,26.275198600606924
0.6501083513918987,-0.5119095701722005,-0.21380425404832812,0.4914965952209802,26.186332442280325
0.6601100183363894,-0.6829595100543265,-0.15767566088190593,0.48679116900592356,26.202420207171382
0.6701116852808802,-0.600962334007931,0.14867741642941107,0.3880848988986426,26.101941010404154
0.680113352225371,-0.6879404523089445,0.2383904101358525,0.43442710564959014,25.8946421627911
0.6901150191698616,-0.8085458009042134,0.213305806296534,0.4900296662896776,25.752612777864364
0.7001166861143524,-0.7248866952208164,0.4297204019609273,0.3637781153665759,26.45685318249922
0.7101183530588432,-0.6212106054395629,0.3269500279083538,0.32117910809329164,25.676185825263765
0.720120020003334,-0.7895252256278238,0.5977905899819661,0.21276255538100117,26.0593567874813
0.7301216869478246,-0.637303825464217,0.7209135119135817,-0.026711269373665997,25.483647071567603
0.7401233538923154,-1.0604345862406899,0.9367161942461719,-0.04256905508278264,25.567255466379248
0.7501250208368062,-0.7178095027401131,0.7724454831786753,0.044702051304615714,25.79004369505688
0.7601266877812969,-0.7896764378311807,0.7976932734583504,-0.06455016831704825,25.517331921788337
0.7701283547257877,-0.8235113753478904,0.903769119314315,-0.08114163243154918,26.32937084952329
0.7801300216702785,-0.7765309957394212,0.918618800101891,-0.017179269661873192,25.26753489302378
0.7901316886147691,-0.9734585375543143,1.2355619356406498,-0.16899798412548583,26.00223672924413
0.8001333555592599,-0.7826049950591145,1.2965969118512881,-0.16868146605810883,26.02990824431078
0.8101350225037507,-0.7078598188355384,1.2034539434722722,-0.3334233571723214,25.069248628964058
0.8201366894482414,-0.5757794277912769,1.3128599034719892,-0.46652506901632673,25.76509223981664
0.8301383563927321,-0.7525370629678434,1.2128518415080687,-0.4284157447017561,26.12437072811965
0.8401400233372229,-0.7559343061752519,1.188020429748448,-0.5332626045033688,26.22176241070172
0.8501416902817136,-0.6969704151117372,1.151670507084385,-0.3199731159574826,25.916082481089205
0.8601433572262044,-0.5244108098190766,1.1308564245713781,-0.4122725025066264,26.367477647344387
0.8701450241706952,-0.5498005339500616,0.9737201198720387,-0.44701850143185934,25.985132238173538
0.8801466911151858,-0.6000759675906527,1.1115105180768823,-0.37536032295844385,26.057332581686918
0.8901483580596766,-0.45803763299418226,1.0280019164051717,-0.6929737437972145,26.187007332989936
0.9001500250041674,-0.45991015195232454,1.044358175119871,-0.4164223279106286,26.53531257815794
0.9101516919486582,-0.3311529533447644,0.908350170005169,-0.5830714690357499,25.744543800436688
0.9201533588931489,-0.45493255493612217,0.8039209410056994,-0.4223724357274182,25.849539157582342
0.9301550258376396,-0.37268440461130925,0.6469829973195182,-0.41580576327262125,25.7690059779895
0.9401566927821304,-0.3329780007341273,0.6487104982570442,-0.27538153736081433,25.947815918788002
0.9501583597266211,-0.3928079244077364,0.6170159182734636,-0.270268341108362,26.837448468793554
0.9601600266711119,-0.1685606709379848,0.32573229797242725,-0.10548352682609197,26.421066160837942
0.9701616936156027,-0.12300108269291439,0.34178021423792404,-0.24330700581967346,25.579485978920935
0.9801633605600933,-0.09894052370776497,0.24634676789985005,-0.052439065658381495,25.85508950011426
0.9901650275045841,-0.07286322025744886,0.03926522789422106,-0.04541543893805779,26.351933101464677
1.0001666944490748,-0.14069917666766316,-0.060670899519042594,-0.16248165565990974,25.72248607603812
1.0101683613935657,0.009012461817195463,-0.0917644200793632,-0.028145665701701544,25.823213991598585
1.0201700283380564,0.06684299424937547,-0.3400883038356647,0.11039161194371708,26.86846105831485
1.030171695282547,0.07052498525805231,-0.3016612416480584,0.2962941287536973,25.89934339317976
1.040173362227038,0.18366725690749836,-0.5331073048369934,0.2882031023962504,26.69336696969801
1.0501750291715286,0.2884552639805772,-0.4402662654202274,0.17803154108715735,26.85364948778666
1.0601766961160193,0.4839438516270501,-0.4108957801514088,0.3290503972350219,25.86916276273451
1.0701783630605102,0.3588922236362887,-0.823157035868223,0.5877506514685089,25.800769638099194
1.0801800300050008,0.41195072738870947,-0.769518804449079,0.43389132222396487,26.117492784685428
1.0901816969494915,0.421987696751614,-0.9741651124686929,0.4201658738124553,25.721003295298257
1.1001833638939824,0.2790964288774039,-0.8679424727275684,0.5250569808788985,26.33554245338581
1.110185030838473,0.508004087981911,-1.160479947468045,0.5676994518074602,26.18185756410026
1.1201866977829638,0.5543444260533964,-1.0386311396727201,0.4534688128961799,26.474580799847104
1.1301883647274547,0.8301468504911319,-1.2170756718260662,0.5491951292467465,27.00231867847675
1.1401900316719453,0.5977829277476097,-1.1835308740119708,0.45802954143831687,26.722094108394714
1.1501916986164362,0.6779342396096042,-1.2886657609713597,0.5470874347799053,26.567424307204664
1.160193365560927,0.6725114676950134,-1.1155323555376742,0.46886420566445536,25.349180775038334
1.1701950325054176,0.5846492963269685,-1.2830345968977785,0.469702862464792,26.56324092389033
1.1801966994499085,0.8385643466796409,-1.1350603513979485,0.30854929892497407,27.21216173463716
1.1901983663943991,0.8193809704895144,-1.2050184727431699,0.2592352854121297,24.85482827063086
1.2002000333388898,0.8402585162702277,-1.1520139324876333,0.38742461897390434,26.713968712869992
1.2102017002833807,0.6841792968845806,-1.085622006298248,0.2318258651499998,26.298731991846346
1.2202033672278714,0.9263001378621045,-1.12664050482393,0.2113770879930395,25.96259318009484
1.230205034172362,0.6536351663230883,-0.9701547205606649,0.09245719511995794,26.79707958192458
1.240206701116853,0.8571716576628543,-0.770090553226717,0.15125058377292883,27.26033769822026
1.2502083680613436,1.019044876963381,-0.9246696220337962,-0.062090211648450536,26.80201406565224
1.2602100350058343,0.6993007638326143,-0.6458959679584089,-0.07753580369632973,26.237660822263212
1.2702117019503252,0.736927915116191,-0.5227086758557966,-0.04703359385778419,25.960323775875267
1.2802133688948159,0.7955932628092732,-0.6576040849522543,-0.06801133541283885,26.513117841084835
1.2902150358393065,0.7242494503944703,-0.6198499746015889,-0.29443587201393573,26.886077107050912
1.3002167027837974,0.6054415627505199,-0.33829263388086434,-0.09902468127947966,26.26459714185368
1.310218369728288,0.7502727157474683,-0.31410186427117603,-0.31194828050147827,26.321505769837575
1.3202200366727788,0.6171596564381552,0.038929696409239795,-0.4904292322402555,27.886213079272277
1.3302217036172697,0.747867038909214,-0.03170590479893829,-0.3860035278972794,27.02299635772383
1.3402233705617603,0.5829176347634681,-0.002350209664023689,-0.4913092367502086,27.067133562036258
1.350225037506251,0.8015415089764764,0.07551876250108698,-0.4325564427439802,25.770266183927795
1.360226704450742,0.5373582692064521,0.40990109261932445,-0.4956941675503026,26.15509545809522
1.3702283713952326,0.5501823450243748,0.3517962887864106,-0.49167403830188855,26.5542516979055
1.3802300383397232,0.6281459291787059,0.5176708906639348,-0.590079861264372,26.024503274661523
1.3902317052842141,0.3859548204061658,0.7086841111164213,-0.39186262216130474,27.3333716511671
1.4002333722287048,0.49202466725669647,0.6590500611474661,-0.5906858325543506,27.246369555910572
1.4102350391731955,0.5583777251448216,0.7909733748861556,-0.5626592547389875,26.28242027006337
1.4202367061176864,0.2236115473726734,0.8749359230933736,-0.38462914312659235,27.449070598323186
1.430238373062177,0.3580022793904864,1.0181684298175881,-0.2240157729006228,26.56284211034004
1.440240040006668,0.3193657441453832,1.0737200065267434,-0.37643186515670307,27.867458078212678
1.4502417069511586,0.32424011034799327,1.0484347276747024,-0.22256539442099274,26.652839234898142
1.4602433738956493,0.07407170905026256,1.1231070138382873,-0.13220167894848553,26.87626307883121
1.4702450408401402,0.01664932052283874,1.115944628945769,-0.10116144395783236,27.295726239276544
1.4802467077846309,0.15123031333023648,1.0315031045462877,-0.15396376619395719,27.242135989170176
1.4902483747291215,0.07868481829051921,1.2206955249393479,-0.17022270700188552,26.866166825503548
1.5002500416736124,0.02379243901575786,1.3892158439827553,-0.21918370098245862,26.54764849802341
1.510251708618103,-0.01685026020485366,1.1060311784773622,0.037951311770499374,26.882638967249754
1.5202533755625938,-0.16953249315151256,1.1009014076926844,0.2436950373620292,26.22477029460261
1.5302550425070847,-0.12793876495483597,1.0644715778892786,0.07313467759760704,26.716154519156486
1.5402567094515753,-0.17089422639626306,1.187118914717756,0.3123100075496423,26.092594403218722
1.550258376396066,-0.3198835874834468,1.1127265690070007,0.20018920156872794,25.763902806951474
1.560260043340557,-0.10913712719957325,0.9957608221811597,0.35407004319915947,26.68658713415596
1.5702617102850476,-0.29442997952865047,0.8545670987792762,0.4570818610482772,27.299477212457553
1.5802633772295382,-0.5056928841977357,0.8819582607037834,0.3570988171073446,27.1381392178573
1.5902650441740291,-0.3641303422634441,0.6348610348950066,0.4701685431172408,26.641113221599188
1.6002667111185198,-0.5687803056345577,0.7172423891048649,0.4345343019172434,27.562330263593385
1.6102683780630105,-0.4322694400646884,0.6953875893904228,0.561971672845734,26.411004069565983
1.6202700450075014,-0.43276683589029064,0.3830501185267796,0.5226487469689807,25.743250825446815
1.630271711951992,-0.6661772195767731,0.25034102995473007,0.5045540260173421,25.61768167955207
1.6402733788964827,-0.5209479891041803,0.4533759599581497,0.6466538607553619,26.124634546343486
1.6502750458409736,-0.6067471673779151,0.12347236946310755,0.5412220010309535,27.129972341340128
1.6602767127854643,-0.5940005900490662,0.18581978290436416,0.38263533001691596,26.410620590193684
1.670278379729955,-0.5120390857262997,-0.05623939109800931,0.4126377706852346,26.96479497298197
1.6802800466744459,-0.7489986886106152,-0.1697371129891143,0.37654275779394036,27.563682573330695
1.6902817136189365,-0.8197149213424268,-0.2210390676136817,0.3490130507780559,26.196648893251297
1.7002833805634272,-0.8502356215781163,-0.46226704956393644,0.5449012122736934,26.992034753826903
1.710285047507918,-0.8568026385646331,-0.46628469883716467,0.27639101356026297,27.02828471762811
1.7202867144524088,-0.7938087471976878,-0.6190928044694548,-0.021204145504814115,26.334383022746387
1.7302883813968994,-0.759756938974459,-0.8092444402832356,0.06830920586355575,27.447736622671417
1.7402900483413903,-0.7708425218184978,-0.7336852871855972,-0.1323790613176345,26.632586850547437
1.750291715285881,-0.7172803312860531,-0.8771886105495706,-0.03481272279759381,26.59030295193188
1.7602933822303717,-0.797027239902216,-0.9424298573869868,-0.2632260490835176,27.84365473481252
1.7702950491748626,-0.6481511105050227,-1.1153845752278435,-0.21329873846641773,27.054829575286465
1.7802967161193533,-0.8120146470756229,-0.8940405248378763,-0.33786654889485024,27.261618731653606
1.7902983830638441,-0.5024752564280233,-1.014970003973676,-0.2041020184404594,27.481876131208484
1.8003000500083348,-0.6978110620953306,-1.0458963110923172,-0.29536181245091486,26.48457761481003
1.8103017169528255,-0.8289773123088647,-1.2023842272735854,-0.31335679630657115,27.44003863995446
1.8203033838973164,-0.8303002747746114,-1.3638811054476851,-0.3969240261206356,26.56942282877577
1.830305050841807,-0.6520581169143784,-1.0042195454832625,-0.5626176478267628,26.553228097405366
1.8403067177862977,-0.6969812639419485,-1.2035190074544042,-0.4018785736009044,26.6946376185062
1.8503083847307886,-0.5749011994730324,-1.259555378821514,-0.28390099313678807,26.524630705239375
1.8603100516752793,-0.5680922439840852,-1.1197426182580934,-0.45058367847831526,27.251694364092852
1.87031171861977,-0.5893840799211971,-1.0111457680101736,-0.5417249759704994,26.97910181178791
1.8803133855642609,-0.6311676895196552,-1.0865836920849177,-0.6416925743308561,26.60469173202506
1.8903150525087515,-0.6602027106591154,-0.9032145689402508,-0.5815755467197439,27.192290839843015
1.9003167194532422,-0.5135908072138342,-0.8604106231878076,-0.4296055818267932,26.72210823035048
1.910318386397733,-0.34166945031730406,-1.0053860583611658,-0.3442463415113434,26.70025194741081
1.9203200533422238,-0.36258301628661294,-0.8861931436465804,-0.39499641049698603,26.89314313519058
1.9303217202867144,-0.4637333818766277,-0.6368563365714983,-0.3039762406675422,27.104971629049963
1.9403233872312053,-0.2756695709771412,-0.9111623639029504,-0.270021713665011,27.07253155736075
1.950325054175696,-0.2071274112924769,-0.5564560315892814,-0.24158442319226858,26.70027527354816
1.9603267211201867,-0.28574655101484914,-0.5813948506118454,-0.3049232458406903,27.309673281441643
1.9703283880646776,-0.13291080237791417,-0.37887659662779555,-0.16474993410771402,26.77906392970676
1.9803300550091683,-0.09279954516010559,-0.2510717889563888,-0.20717301556242407,26.566837439318135
1.990331721953659,-0.16286521136316426,-0.1450188311557012,-0.058855347595437056,26.16431272778798
2.0003333888981496,0.037454530190421165,-0.0514555918080406,0.03518109120536727,27.393831693669924
2.0103350558426407,0.10799160672982103,0.006987616536729982,0.2326330535561272,26.91228126995268
2.0203367227871314,0.2102506925584905,0.45778835611271196,-0.004580149816865359,27.015290915686304
2.030338389731622,0.2569557209088242,0.5252089565699978,0.23418822793463606,27.43644927592258
2.0403400566761127,0.06284012767778516,0.3291164805514888,0.39087064232914326,26.67846221513694
2.0503417236206034,0.15506414093472237,0.7064410081746958,0.37151173842066365,26.23350750792223
2.060343390565094,0.3476073407441053,0.6063213108480698,0.4271377185890779,26.9590634329799
2.070345057509585,0.3935706022364849,0.7514869036351918,0.44540445909360804,27.08154381923961
2.080346724454076,0.4384340432554672,0.81798328935545,0.5531607177409592,26.79945234918613
2.0903483913985665,0.8154121491234211,0.8367592725803977,0.34459340489677165,27.67098325724262
2.100350058343057,0.5287396486296828,1.0715274207215764,0.3376106655651997,25.69419238929649
2.110351725287548,0.6248567492348966,1.0474983323217244,0.49091951688570445,27.50038869123353
2.1203533922320386,0.6443314084129008,1.0398330377921927,0.28303165471416275,27.338945268946812
2.1303550591765297,0.649534301180998,0.9999518985481481,0.6219328984660198,27.174685157657485
2.1403567261210203,0.5860250860786947,1.0739370548080345,0.6127902195039504,25.28120345691447
2.150358393065511,0.724167759097179,1.0217153151393386,0.4314925224228653,27.593876111198256
2.1603600600100017,0.5991478605300493,1.1991032271307573,0.41436858824846445,26.441415067544586
2.1703617269544924,0.678237614776248,1.0796058408061326,0.4137070321775005,26.70340934571271
2.180363393898983,0.6761011353286015,1.1634595032698314,0.38899926271706503,26.87450491969926
2.190365060843474,0.7526821523977232,1.307202712902416,0.35331528107882887,27.165978791216226
2.200366727787965,0.9928786835525932,1.2599092855980545,0.34784857059122837,27.284374823903008
2.2103683947324555,0.588598445910687,1.0964165312479301,0.22158324747325306,27.413394521578226
2.220370061676946,0.8548022491962725,1.0408368685354403,0.27621773950058465,27.377136762403865
2.230371728621437,0.6326521954738502,1.1781149740782266,0.16667611147561934,27.097831605457856
2.2403733955659275,0.751343849651754,0.9739939391604492,-0.00035802285560659897,27.18140947668505
2.2503750625104186,0.908892838296369,0.8127427504553821,0.13115468825054144,26.430073498720468
2.2603767294549093,0.8047282448049108,0.6190192281105046,-0.20084000037747218,26.601861149297633
2.2703783963994,0.685676652955813,0.710343550455999,-0.13586295029944256,27.42695077123104
2.2803800633438907,0.7139392148426398,0.6572663555522782,-0.08958874261179457,27.39959334714994
2.2903817302883813,0.8423468928591317,0.4094470480039452,-0.3152831740149237,27.34457802428659
2.3003833972328724,0.6872108161834247,0.39581436115419744,-0.2648825292082221,26.727081348672513
2.310385064177363,0.7647523501884934,0.22116275426831603,-0.28969926755881337,27.441068846429587
2.320386731121854,0.7275890077781046,0.127656313916771,-0.4728533313144824,26.40665518215268
2.3303883980663445,0.6349426942144161,-0.21548004871560417,-0.43071432058364933,27.527333460791905
2.340390065010835,0.888804136547737,-0.10192907091292527,-0.4691019915830524,26.859515767892464
2.350391731955326,0.7094461542753328,-0.09515897713457211,-0.5314568697465715,27.833255398282496
2.360393398899817,0.41263398700099857,-0.36587551481963976,-0.26143330551345756,26.231589541477202
2.3703950658443076,0.600459152503469,-0.4054339794757018,-0.5754737125586281,27.875074323632216
2.3803967327887983,0.4800036316342263,-0.5905865460220994,-0.39835761315615814,26.813623128090892
2.390398399733289,0.5936379182966953,-0.5786795430332724,-0.5299485173750095,26.805519896683293
2.4004000666777796,0.3893477477694737,-0.7306501166667438,-0.5834090970470889,27.093504370505947
2.4104017336222703,0.4154814484476995,-0.8909008259183044,-0.44105160351459244,26.648292112646548
2.4204034005667614,0.4341235331597244,-0.7446240218101596,-0.35589107753514493,26.961334818654617
2.430405067511252,0.42535554087711047,-0.8580937502032902,-0.2915783629462359,26.629275052783925
2.4404067344557427,0.17256814134738774,-1.076141571127988,-0.18417963577758328,26.648066378642863
2.4504084014002334,0.2118102844050611,-1.021518014206712,0.0027118516046764074,27.242472150456365
2.460410068344724,0.14946024940968025,-1.063689520560831,-0.2135643933552931,26.548598514266413
2.4704117352892148,0.08253868019003088,-1.0894127743416606,-0.24796370049781252,26.615557272561585
2.480413402233706,0.2747500742226128,-1.3490374368130365,-0.07653996619202762,26.31345292408511
2.4904150691781965,0.08864816996941544,-1.0944463358224243,-0.08669967906510379,26.747998390951842
2.5004167361226872,-0.12818313726628017,-1.256960640465323,0.09521503129999696,27.65580094630019
2.510418403067178,0.03945498191106883,-1.2300025403079815,-0.06444251675354752,26.576990328994363
2.5204200700116686,0.10985453217127703,-0.9140570639189733,0.3637331103223388,26.63401875285129
2.5304217369561592,-0.04874032911547424,-1.1208252723580028,0.2721282589938501,27.096595618684802
2.5404234039006504,-0.3529495968003572,-1.1525923560264408,0.07480427546559879,26.813956720070973
2.550425070845141,-0.29766818321282007,-1.2875461607789098,0.22514625456885556,28.113073487745933
2.5604267377896317,-0.16980185360816244,-0.871622853731405,0.4258312902721472,26.917294679571256
2.5704284047341224,-0.41333759538741566,-1.0797296386074344,0.5046012196640062,27.165651299876075
2.580430071678613,-0.34291396584340506,-0.9717694319862417,0.2963819496274126,27.469331078443506
2.590431738623104,-0.35302877368177243,-0.8230402298425772,0.524864456101772,27.45906129618499
2.600433405567595,-0.564681974317917,-0.5597296904240355,0.28162871907902376,27.112662975805225
2.6104350725120855,-0.5175748653783382,-0.5292852489756276,0.48271492913765324,26.914623437763865
2.620436739456576,-0.8733626538002511,-0.5222452761599271,0.6103828366731316,28.00629065254121
2.630438406401067,-0.6871199682239909,-0.3709877102664205,0.44368125725904434,26.943406693072248
2.6404400733455575,-0.6430750648343267,-0.3536431337052193,0.33992576694120247,26.771373507104926
2.6504417402900486,-0.7732945544342408,-0.1688199200915046,0.48928472782599786,26.668147118161517
2.6604434072345393,-0.5134128420168783,-0.06300938349482359,0.39074839730536914,26.126444433638685
2.67044507417903,-0.8451345122055012,0.1396007406545142,0.48361477345852366,27.39934975188818
2.6804467411235207,-0.768819353152679,0.25212902700575085,0.2949286948014788,25.813124987593863
2.6904484080680113,-0.7315739101073859,0.31611651612549985,0.2629506222060784,26.982836600268048
2.700450075012502,-0.6174139374330652,0.3394233817876575,0.0894998827578414,26.881728120066153
2.710451741956993,-0.9190143227589709,0.5554442474848337,0.2553801503530614,28.10252309250439
2.720453408901484,-0.6699372932393342,0.5733959129799765,0.1653200134318675,26.065018647818995
2.7304550758459745,-0.7929519048962702,0.5705592068395474,0.002734963495129042,26.528518158057835
2.740456742790465,-0.89671311681824,0.7285531026379255,0.07919830121764541,26.909168955246486
2.750458409734956,-0.7537863341862279,0.8606388945433568,0.09982677268282783,26.87652181571564
2.7604600766794465,-0.7783668682118647,1.0189455037428534,-0.08709030044154258,26.698505481979886
2.7704617436239376,-0.8534192133909569,0.9770697748269046,-0.10033621316323943,26.930697188017035
2.7804634105684283,-0.7784097838737033,0.9331630024862073,-0.15943524020123187,26.33924529841921
2.790465077512919,-0.8128132101571127,1.1090580921242918,-0.3638664069864448,27.145380862768715
2.8004667444574096,-0.748765218817671,1.1542336011949936,-0.09060153245439684,25.80372184148012
2.8104684114019003,-0.6767381545464662,1.1908280989095688,-0.39149803307281356,26.94918234427508
2.820470078346391,-0.5642507427030454,1.2831794361245223,-0.3215209572668172,26.659413699904228
2.830471745290882,-0.8236814573928548,1.301455927361714,-0.3468232321814404,27.465183656104504
2.8404734122353728,-0.460880947400519,1.1378628760775584,-0.46763152187837803,27.832065571397365
2.8504750791798634,-0.8410158579785783,1.1227592596009806,-0.4157626949800444,26.786177120573054
2.860476746124354,-0.6300588256930301,1.0569272899574127,-0.4671141836361724,27.644282262796153
2.8704784130688448,-0.5226943731883723,1.1970942013411359,-0.6409570665361317,26.78800028553763
2.880480080013336,-0.5177769019469165,1.2283515658286066,-0.5320421512973,26.460057439245887
2.8904817469578266,-0.5703409939999462,0.9985981263347955,-0.5518225337079661,27.813058055206056
2.9004834139023172,-0.4890724277419505,0.94345368390032,-0.5207553921775268,27.197403382173743
2.910485080846808,-0.47590083181382103,1.0431740987281581,-0.5815077341455547,26.936066846267032
2.9204867477912986,-0.4421935903101653,0.8679907193040647,-0.3078739706908962,27.274192377220846
2.9304884147357892,-0.2534402363032351,0.7747395677135958,-0.22309398496927255,27.06439096960812
2.9404900816802804,-0.25650627170307816,0.5192138104527732,-0.24222208459706196,26.889277449224934
2.950491748624771,-0.31415255897706473,0.6077001997129363,-0.16433444991690513,26.257197463600264
2.9604934155692617,-0.10658871209921744,0.34364254791575277,-0.2726189630892142,26.78159839276332
2.9704950825137524,-0.116729901281318,0.2160067579776297,-0.24479216515108618,27.224870657314245
2.980496749458243,-0.016502644568068908,0.18465938373760488,-0.19917813360677356,26.848157860243766
2.9904984164027337,0.015231081230815693,0.04873753861284213,0.004848033043335906,27.356931670509223
3.000500083347225,-0.08038581215672422,-0.027815757910187876,0.02584840097291452,27.093746257160635
3.0105017502917155,-0.003268846875556418,-0.26267633344918206,0.058070910184053526,26.45892543193795
3.020503417236206,0.17750593925910813,-0.13456606197951487,0.2569209797567974,26.234407503298243
3.030505084180697,0.21343517949724206,-0.22750243428143369,0.22750336496459855,26.81132932693321
3.0405067511251875,0.19932792141288397,-0.6418074059405007,0.15979634077891655,26.62365481190424
3.050508418069678,0.2613755769023802,-0.45205989764608145,0.22838012008791936,27.04970592807127
3.0605100850141693,0.42464853129692326,-0.7289084329492758,0.41280214973156093,26.518177876240987
3.07051175195866,0.28379205767322807,-0.654355580256612,0.4914715199543087,26.56517808991167
3.0805134189031507,0.442372174593429,-0.8325243946875651,0.4790517144729139,27.394962696232657
3.0905150858476413,0.4106259746868498,-0.9010975668735979,0.643470897644113,26.938009119469967
3.100516752792132,0.45055900699554224,-0.9927538456245131,0.6400222745370603,26.507950291747267
3.1105184197366227,0.6218220192152677,-0.9146497771570973,0.53584714458972,26.863467491133633
3.120520086681114,0.6320820917955641,-1.2122426618016198,0.41534982631357376,27.53936172788848
3.1305217536256045,0.6663180353836589,-1.0702580867394174,0.36779804410353895,26.991985914671265
3.140523420570095,0.7486322001278736,-1.0536248094931793,0.45177858105195573,27.136681574010996
3.150525087514586,0.6508618417372505,-1.1145064849376567,0.5498197423867794,26.45912982738858
3.1605267544590765,0.7450726743953962,-0.9655214938814511,0.6336591329711672,27.343425234003814
3.170528421403567,0.6712944051548182,-1.2520999548157552,0.4621203359944854,27.984162847586187
3.1805300883480583,0.7574087553249234,-1.0940409122288082,0.4999973371440096,26.424201991706767
3.190531755292549,0.7317866875586012,-1.1803825604035425,0.3152996113534942,26.223741049481216
3.2005334222370396,0.7713690934429139,-1.0160485399452786,0.3534514624283922,26.897139717626203
3.2105350891815303,0.835046739996989,-1.099657029682811,0.32026089716315664,27.2417302250821
3.220536756126021,0.704508822799719,-1.0874176323154834,-0.017037021224193705,26.752820726890153
3.230538423070512,1.0032651492268052,-0.8584539421145531,0.07972151377291167,26.266379201661195
3.2405400900150028,0.6979855100428569,-0.9698665629886221,0.15426851075788645,26.73308634808406
3.2505417569594934,0.6785765039499506,-0.9854571383850874,0.02404290048995757,27.08075000848814
3.260543423903984,0.9140563010690715,-0.8118479058259226,-0.1857041433596775,26.572443039681435
3.270545090848475,0.8725099724107507,-0.607489067345849,-0.37067154516106726,27.07377140789207
3.2805467577929655,0.8477221652910782,-0.43347407779533753,-0.22383011724984578,27.346614331944714
3.2905484247374566,0.8370109215581018,-0.4597657827760018,-0.25104928725916864,26.878419619375734
3.3005500916819472,0.7587615415859058,-0.23307883557647363,-0.3850741051543519,26.7383063500298
3.310551758626438,0.6530703118660587,-0.39149591205584855,-0.33048400134258854,27.16085892737251
3.3205534255709286,0.7302532824266444,-0.1885144681404856,-0.3368251109861545,26.311974320675258
3.3305550925154193,0.6319807229486257,-0.060275084750585614,-0.35695378926880084,26.256438871081425
3.34055675945991,0.7714706305657923,0.07017599035277716,-0.6894838045918447,26.59420822896602
3.350558426404401,0.6308539887482072,0.2023660658379394,-0.6080292975379953,26.47518700626762
3.3605600933488917,0.5320624984037992,0.3736502703367315,-0.5222531463677148,26.313020138482916
3.3705617602933824,0.5490997229999992,0.36797684891632354,-0.4420052437000037,27.623422040441277
3.380563427237873,0.586862895052418,0.5305965375692905,-0.44985517123257257,27.787613625688873
3.3905650941823637,0.4513749046013047,0.6118297784121567,-0.4432789383238393,26.518126518489588
3.4005667611268544,0.385698415824067,0.6179289571317317,-0.5127575715145066,26.73413359598654
3.4105684280713455,0.45061498825667307,0.7870184499155354,-0.4836446537651479,26.58758112018172
3.420570095015836,0.4073859759735336,0.8647974532862207,-0.49306673429669406,27.22841415440018
3.430571761960327,0.28732646020812713,0.9356275206986235,-0.30613734712964735,27.32058318445721
3.4405734289048175,0.2447139478472293,1.0198296552996111,-0.4316871233241202,25.77215851111119
3.450575095849308,0.26766771749602913,1.0797122993583381,-0.205958008106928,26.89176023038553
3.460576762793799,0.05133413070667123,1.0748870580178662,-0.21690955997842035,25.993243270491988
3.47057842973829,0.006301685412468949,1.281431891536325,-0.18518272929770954,27.5186241019776
3.4805800966827807,0.02552861376587061,1.063008374723117,-0.18648236587134234,26.852381374352614
3.4905817636272714,0.025968878788274606,1.1231785800139722,-0.19459265526179587,26.213287466063004
3.500583430571762,0.028158121210984752,1.4779782210233343,-0.06109950608242499,26.496942245156784
3.5105850975162527,0.09436833466741407,1.0902343182813552,0.03331149076804043,26.46569113238778
3.5205867644607434,-0.01742607945719761,1.0421077249810333,-0.10898997632891727,26.865249467024718
3.5305884314052345,-0.16880326193879655,1.2239256993505707,0.167759288969437,27.116099239060564
3.540590098349725,-0.20372512696558875,0.9055457452383588,0.3365550013248698,26.0134262378678
3.550591765294216,-0.35029376921677324,1.0426253987865366,0.3536143265208103,27.499231387333875
3.5605934322387065,-0.2991223470895402,1.224163940952305,0.29536148815214414,27.37496105308111
3.570595099183197,-0.37219351412728285,0.7895524129086057,0.39232286031075,26.12665399252703
3.5805967661276883,-0.3557570019457225,0.671931902286123,0.36854474820639915,26.592854673556673
3.590598433072179,-0.5139212770329582,0.6385666823813314,0.46887775019535965,27.403934581868533
3.6006001000166696,-0.42073054651796715,0.7896762324638165,0.6306906692184772,27.15700498287805
3.6106017669611603,-0.3589923065614452,0.7174595192543027,0.5886879473501128,26.3641287158596
3.620603433905651,-0.5607208581359966,0.45349288840368446,0.5513165150047231,26.931564158854865
3.6306051008501417,-0.5450816068412189,0.4683612242491516,0.44947172187149753,28.014827217577896
3.6406067677946328,-0.5493358204509415,0.43080176611712573,0.5654088154552198,26.56058200474564
3.6506084347391234,-0.6891285481778434,0.35965643497059707,0.3056453316456153,26.183392277015
3.660610101683614,-0.654691348309072,0.04382741589493974,0.42553272317635865,26.577581491719744
3.670611768628105,-0.7012623545312063,-0.2747549439097696,0.4784630090901371,26.606243879935526
3.6806134355725955,-0.7154015269873216,-0.2393683068801229,0.4568304785395805,26.212237164649043
3.690615102517086,-0.8222547922807927,-0.31123697941855727,0.4064344850048276,26.686797539656254
3.7006167694615772,-0.7593465012360792,-0.40334206364493536,0.3202317344717172,25.83020605361131
3.710618436406068,-0.7258339254539019,-0.501774375143679,0.21789199027341144,26.116003672596825
3.7206201033505586,-0.6412935373628479,-0.4723507584514501,0.23423170397548707,26.81919980275213
3.7306217702950493,-0.6981503319503414,-0.5528616735021042,0.025271120586045304,25.55389192673138
3.74062343723954,-0.5832937799108328,-0.7874957366201343,-0.02568927655978577,26.874104561134516
3.7506251041840306,-0.876728585737305,-0.743663971477095,0.002245862614296025,25.407667317510658
3.7606267711285217,-0.7109853070804308,-0.8933520492237172,-0.04925193425968165,25.53907711874692
3.7706284380730124,-0.7749554622078075,-0.9900236489873498,-0.310727084846935,26.14627596928204
3.780630105017503,-0.5662498661082285,-0.9643281681833066,-0.14222287677130072,26.530168074046834
3.7906317719619937,-0.8549005070123172,-1.0968984967552677,-0.16707490633382313,27.04028400180604
3.8006334389064844,-0.8438274601924762,-0.93768015625664,-0.3048317041080472,26.397325223943785
3.810635105850975,-0.802579336865551,-1.316487138327882,-0.10772493346847561,26.23604463610111
3.820636772795466,-0.9348826031370302,-1.242935902341508,-0.45608807955434694,26.639865979831395
3.830638439739957,-0.7520691909677488,-1.212264851877836,-0.4604085039694874,25.905326545120964
3.8406401066844476,-0.7496461109060637,-1.1532104457677002,-0.4936180077290532,26.401131185356927
3.8506417736289382,-0.6302728200800234,-1.057272839583444,-0.48437761633199955,25.722295547185553
3.860643440573429,-0.580168353843309,-1.162908537646339,-0.5247575990544845,26.353856796645466
3.87064510751792,-0.39333327716927224,-1.2687876045538433,-0.6399325296133205,26.238134402368697
3.8806467744624107,-0.4502208770897714,-0.9984064096230376,-0.553396546472278,25.891358172218577
3.8906484414069014,-0.5651139040635249,-0.9536421333706109,-0.5001259542924984,26.366400936981627
3.900650108351392,-0.5574220468642124,-1.1606663413993012,-0.35139293795758186,26.353493228754278
3.9106517752958827,-0.3766997618195814,-0.8956219470707444,-0.23043038175762515,26.85223287107289
3.9206534422403734,-0.5145447388053678,-0.9750679003406029,-0.286402421766931,25.451926688930143
3.9306551091848645,-0.15449514019849617,-0.7960852467601909,-0.46015775231804784,26.20690691053486
3.940656776129355,-0.17348364441623812,-0.726989131794272,-0.40883469538687717,25.854938974308258
3.950658443073846,-0.2909813462368114,-0.4572165210584812,-0.3064684614895761,26.660041238312232
3.9606601100183365,-0.36704982918782414,-0.42311653854873965,-0.05877813856211661,26.592157893530604
3.970661776962827,-0.01124899458722689,-0.4561546236790046,-0.19673228826814462,26.45913544509528
3.980663443907318,-0.10841117315125737,-0.12947616510779505,-0.2530538393869313,25.843224960233467
3.990665110851809,0.076886259215588,-0.24881954606146378,-0.10863612796917703,26.627775749570677
4.000666777796299,-0.156091184921555,0.04055240862748478,0.07989503961289521,25.40982706359492
4.01066844474079,-0.006352199965408721,0.0390529988872112,0.13582522886309145,25.29704284782616
4.020670111685281,0.10413184647972507,0.19572987877231673,0.10839697735353479,25.51652237570636
4.030671778629772,0.15791868239994938,0.39250560625117686,0.2563216410991462,26.127434555312703
4.040673445574263,0.15722232904391223,0.500967090905307,0.017258936462920316,26.471423060778914
4.0506751125187535,0.3127237515962644,0.685277573446745,0.3076966667690055,24.635448746068516
4.060676779463244,0.19089790079854937,0.6412163110195246,0.4314294953420251,26.774416154540024
4.070678446407735,0.3294680612549947,0.7721813712877286,0.3046734735094456,26.16813663646511
4.0806801133522255,0.400424736238044,0.7832730352943126,0.34080440010039537,25.308186621852126
4.090681780296716,0.4829948905762428,0.9234128669074474,0.2675760175558243,26.131995410524276
4.100683447241207,0.5441646267477434,1.0192921751527635,0.6358272522930672,26.617191051581692
4.1106851141856975,0.40012371203555946,1.0269821744109837,0.419916635827872,26.360012978245017
4.120686781130188,0.3967376618169558,0.9087018064473185,0.5233700567381707,26.59915125573076
4.130688448074679,0.7133060080046185,1.1648176962662542,0.5591147879572702,25.355772212809285
4.14069011501917,0.6518473514488822,1.200672371105729,0.6415194537027269,25.8211326855015
4.150691781963661,0.5744027127607505,1.1184073839894924,0.4587773580843614,25.554988360817468
4.160693448908152,0.8324388275737205,1.0696602378208862,0.396598243845804,26.865283575595925
4.170695115852642,0.7142893791693979,1.3467231121960268,0.4371144056832948,26.315294143924536
4.180696782797133,0.8432756731391963,1.2386688489226418,0.5108592642886237,27.408197447577063
4.190698449741624,0.7518582786347255,1.146443475843091,0.3220440864858435,25.739928930365576
4.200700116686114,0.9680001239477577,1.0250928662736443,0.1948355540895857,25.600399181052982
4.210701783630605,0.9512703432326239,1.0159478444197731,0.08292772082087527,25.88028753756418
4.220703450575096,0.7615882746436607,1.1779712185342444,0.05781587123000066,26.629806453493465
4.2307051175195864,0.8912852847814885,1.0017585587303437,0.20648807276959646,25.74645783725715
4.240706784464077,0.8631741790726488,0.8644414318300611,0.026195915099029486,25.980589612059497
4.250708451408569,0.9368552300255397,0.8938125680335113,-0.06520336367330642,25.955533027915216
4.260710118353059,0.7016969628191394,0.6772637001973585,-0.1386874078065522,25.91571709428155
4.27071178529755,0.8618405509912993,0.8179111461881163,-0.12016709977646729,25.558515137553854
4.280713452242041,0.8909923686120089,0.706300567606727,-0.21216829044357502,25.804779549280966
4.290715119186531,0.5980908253929953,0.422486670801914,-0.27211771660706996,25.772050005188174
4.300716786131022,0.6413982734235313,0.30023507360520457,-0.1625918318515511,25.84696115302327
4.310718453075513,0.5385609741847749,-0.007977194884297156,-0.19174862171305315,26.311110471839633
4.320720120020003,0.6953723532187689,-0.005841743562898127,-0.5491270940210271,26.70824151274785
4.330721786964494,0.7710445172450049,-0.10441406601164258,-0.39181733035400046,25.396252850715452
4.340723453908985,0.8237425527177111,-0.06999370007417575,-0.5320164338414123,25.60898391267748
4.350725120853475,0.6524739716238589,-0.228440238366326,-0.5017415110358626,25.380953479032893
4.360726787797966,0.7769370708340941,-0.44091588695352013,-0.4610509758786089,25.87545756514812
4.370728454742458,0.4426521098709921,-0.44234383537869304,-0.52055183752201,25.501148557449014
4.380730121686948,0.3746183787195251,-0.4678608723149829,-0.47565832593312163,25.878607771559167
4.390731788631439,0.5015448080637819,-0.5651749679651886,-0.4229642777920665,26.298878915861383
4.40073345557593,0.5056471207393677,-0.9020033724975298,-0.4446263147090841,24.472476220988916
4.41073512252042,0.4222674992240213,-0.8126179432529027,-0.5151112442095244,25.969579570244584
4.420736789464911,0.17540920243457375,-1.0187795517007747,-0.48258531566649726,25.481865082995363
4.430738456409402,0.3283491592742865,-0.8631089830441288,-0.526253048693674,25.930410607158528
4.440740123353892,0.16059050459400312,-0.939239373584068,-0.4242608816930727,25.2401779681205
4.450741790298383,0.3106320262416437,-1.1627931217848537,-0.09390240494740551,26.274729208562814
4.460743457242874,0.23198995863062724,-1.195404191493022,-0.31597326826935407,26.121398330978725
4.470745124187364,0.052236382310117985,-1.200801794759852,-0.29903916822591514,25.93706715152066
4.480746791131855,0.045154623036981784,-1.4055774551505116,-0.08780193661712776,26.037611207829546
4.490748458076347,-0.059444215045754124,-1.1618444242451578,-0.06903477113754085,25.256270073059063
4.500750125020837,-0.010038435375106482,-1.2272544658400788,-0.014846218974157369,25.30732554372743
4.510751791965328,0.04151092911333486,-1.096826705198764,0.20825474804461055,25.981388264255884
4.520753458909819,-0.20259548745791198,-1.28695916126387,0.18383735985827643,25.2093144361904
4.530755125854309,-0.10322714353240367,-1.2118528944591596,0.13546604360099465,26.303981949131952
4.5407567927988,-0.2556599525849159,-1.2632051307850485,0.20258518885658813,25.407331357364495
4.550758459743291,-0.33012389851417034,-1.1657152809105449,0.2474759730137961,25.80801407949096
4.560760126687781,-0.308751808346402,-1.1267593374976699,0.4332134139851498,26.594609636364588
4.570761793632272,-0.44760850726054463,-0.8432836407203543,0.3574751830479144,25.17976966963617
4.580763460576763,-0.44412631217265297,-0.9386551972878031,0.24539948650225973,25.555137647768493
4.590765127521253,-0.5516915025702889,-0.7746450905894178,0.44960752265420423,26.0357032149004
4.600766794465745,-0.2768684369242606,-0.7363842946882975,0.3232923755817881,25.972085101444595
4.6107684614102356,-0.5093831488040785,-0.7302994802402465,0.7104485205042657,25.320353920922575
4.620770128354726,-0.6204257144132076,-0.5198708075042727,0.4027270343951135,25.21369240212524
4.630771795299217,-0.5644257209228278,-0.33835173049342815,0.482498930878863,25.343267057217428
4.640773462243708,-0.6301143161952566,-0.41072312139920486,0.5160300770193194,26.171523149617403
4.650775129188198,-0.6715930137415832,-0.09814657237867574,0.4451349079592332,25.295782905266737
4.660776796132689,-0.6161298077944509,-0.15155075322409098,0.42131084068680125,25.462118054549958
4.67077846307718,-0.6271712731466733,-0.0018067095100664093,0.46170568263678,25.197374640446792
4.68078013002167,-0.7785726884604629,0.21221753861427453,0.5347352924691069,25.75123360408758
4.690781796966161,-0.8028406668133885,0.20405006336562553,0.4154271795040166,25.46389755052596
4.700783463910652,-0.7895581050165119,0.382994784739102,0.43774732832226537,24.872078587367103
4.710785130855142,-1.0060306671283148,0.45324457703767596,0.13188034432361817,24.87702913501465
4.720786797799634,-0.9380803713695113,0.5988230355238355,0.21119317831551945,24.349769834203407
4.7307884647441245,-0.6574913202814553,0.44378279893508,0.1350650949267484,24.92102955298341
4.740790131688615,-0.6341641521924005,0.5888047777630765,0.09284734094881303,25.721267503040753
4.750791798633106,-0.8248937036562575,0.9164333159450045,0.1326482616158175,25.97376640704509
4.7607934655775965,-0.7405053317951378,1.0340282936910556,-0.08968851382726821,25.64224453962589
4.770795132522087,-0.7620559142044212,0.9064747706305288,-0.1697280001065828,25.564348851994644
4.780796799466578,-0.47718138425350864,1.0314768550287707,-0.13530976104773312,25.211325785227306
4.7907984664110685,-0.6619011661927754,1.1343326794299342,-0.42308126455344774,25.649591301855583
4.800800133355559,-0.7723845242017737,1.213353488591648,-0.3216301474354708,25.39280799829367
4.81080180030005,-0.8378821520363422,0.970277085758283,-0.3593483278655419,26.139418375313966
4.820803467244541,-0.8827774765539163,1.1030383749500632,-0.48049072039963775,25.175486867668987
4.830805134189032,-0.6787403391661007,1.1664014221145476,-0.31914705241459385,25.883720327957338
4.840806801133523,-0.7489157400866624,1.2673385311872907,-0.5607726641816325,25.636771707601174
4.8508084680780135,-0.7870419824888291,1.4336042970074019,-0.49066072576130704,25.55492680337544
4.860810135022504,-0.6784642011487387,1.137186763815716,-0.4627562487974297,24.168942598120267
4.870811801966995,-0.6885287914106153,0.9852161180699077,-0.3639625126532696,25.626759243510058
4.8808134689114855,-0.3759356714416879,1.1220701790212042,-0.49972200755845575,25.08588027105682
4.890815135855976,-0.41861150264408153,1.1602667396556205,-0.39654281485172493,24.915134901795163
4.900816802800467,-0.46769770795379556,0.9761632371582599,-0.4038577835701693,24.38310010272011
4.9108184697449575,-0.27718773850535655,0.8033201601976603,-0.437854268759898,25.109216611699726
4.920820136689448,-0.37404847120460266,0.9104698805078103,-0.5283317788463203,25.116235109023272
4.930821803633939,-0.4230096373071338,0.7944770377709356,-0.5254028554439572,24.435403553844647
4.9408234705784295,-0.13833476525747218,0.5325013611881941,-0.32783305768067583,24.33770620045777
4.950825137522921,-0.18937469049811825,0.5745998224767457,-0.34395224767970733,25.305094863078537
4.960826804467412,-0.29864845362707243,0.532768413548691,-0.14438542536695212,25.485074084670913
4.970828471411902,-0.16484631758869012,0.44397046631267045,-0.10462684197304749,25.131797426398
4.980830138356393,-0.18368723977760315,0.20898354706582126,-0.13774732330031753,25.59950630097805
4.990831805300884,-0.18433886265473837,0.06775291151469418,-0.1732494049135152,24.968328537350597
5.0008334722453744,0.09680722405680252,0.11330113013196552,0.05631031978108018,24.971776990734554
5.010835139189865,0.24536295278036865,-0.24334571462661275,-0.03392591686252602,24.527870253334818
5.020836806134356,-0.03541849676907469,-0.1902889789700377,0.05358420688022465,24.193695456403923
5.0308384730788465,0.210339848680887,-0.4808878175718453,0.09100871923376715,25.888580723612698
5.040840140023337,0.1379751928194894,-0.34403240845304583,0.23163903352185386,25.514333923617166
5.050841806967828,0.20252186504667846,-0.5790588441064374,0.41517441233866714,24.239864883259976
5.0608434739123185,0.2391981268021912,-0.5241678654744133,0.34561348415461923,25.001436411749545
5.07084514085681,0.25806336894800624,-0.6938763301152415,0.34429779576928643,24.86097961199515
5.080846807801301,0.3939796463868271,-0.9507337713186926,0.27242946083362024,24.761452355308332
5.090848474745791,0.3491612893630114,-0.7639876265309635,0.5098701081813158,24.68138950273765
5.100850141690282,0.5007243142585484,-0.8213161260129733,0.39911127472641766,25.063987340921006
5.110851808634773,0.5082071351743093,-0.9495324123861224,0.5038701092971867,25.269899872447546
5.120853475579263,0.5268622926905644,-1.1660259475828192,0.46389951329659246,25.049472533232375
5.130855142523754,0.49535257131312477,-1.1628976948734335,0.5824649059282548,24.77548859229849
5.140856809468245,0.5614697694181439,-1.1501290254720846,0.4743827713525832,24.744611738370764
5.150858476412735,0.7252796856202954,-1.2570770818288939,0.4679411571458608,25.279116553703215
5.160860143357226,0.7278608585234125,-1.0289688831204793,0.49866075919970965,25.029923638086
5.170861810301717,0.6053664553085226,-1.1846295088419798,0.6299318252297155,24.822045643660296
5.180863477246208,0.735632224236486,-1.4596090698774302,0.4706204304061789,24.755258469438935
5.190865144190699,0.8205497629562452,-1.1349911935047279,0.32943022085990037,24.933361535442405
5.20086681113519,0.5952398020402085,-1.173016090474807,0.2897888997309135,24.514078548020024
5.21086847807968,0.8302766487877467,-1.1048604695966304,0.1835948030970057,25.146558854475764
5.220870145024171,0.7203752492010278,-1.0836536541729986,0.08396845307535793,24.18540715248263
5.230871811968662,0.8512889534238758,-0.9062164865389482,0.06375684657177387,24.505166091943742
5.240873478913152,0.722359128286246,-0.8063188605865566,-0.0199968988767618,25.00401672517698
5.250875145857643,0.6194996956675339,-0.8131953307749069,0.059838245622793655,24.119603509510547
5.260876812802134,0.6353782846426316,-0.7911730664395842,-0.1752479238279312,23.887134282138263
5.270878479746624,0.7979347314646787,-0.6703933964506237,0.0036375567385199814,24.69278391693985
5.280880146691115,0.8109610451401544,-0.5674017042161852,-0.11398805514001996,23.800635905687358
5.290881813635606,0.6833206658982417,-0.547651281572886,-0.24366703937338996,23.98709697640114
5.300883480580097,0.8233204429789245,-0.30341189324251866,-0.29833347242527786,25.00244393838821
5.310885147524588,0.5760198141836017,-0.2059889711514966,-0.4020346194566724,24.509417219024936
5.320886814469079,0.7153444744855355,0.013599929720370912,-0.3617759235425778,25.242231621567242
5.330888481413569,0.5777813021415061,0.0978868009895761,-0.3163195912526509,23.984775091922963
5.34089014835806,0.6078706881828883,0.01682583735871307,-0.5250821885064062,24.527916498025697
5.350891815302551,0.6493084197688141,0.2797064629626161,-0.6305691277480386,24.762412164000477
5.360893482247041,0.5274968043088606,0.2131094072970255,-0.42184276298533235,23.965106901661922
5.370895149191532,0.5416300128170136,0.48558951721939647,-0.4668983466138228,25.054007555069283
5.380896816136023,0.6449721787956656,0.4684328058958587,-0.6106477472578351,24.781246520545942
5.390898483080513,0.44876205279060183,0.5172488908708259,-0.5633936495274917,23.70906273437973
5.400900150025004,0.5501293949592595,0.7415575181074993,-0.559660559355929,24.48265378282409
5.410901816969495,0.3118565286845623,0.5337393847057235,-0.5224251680001536,24.68234113777599
5.420903483913986,0.43439750458818926,0.7066278111547748,-0.4514633364171916,24.182192687405777
5.430905150858477,0.48065804080014696,0.9366765870275137,-0.40826133111432517,23.72516747123853
5.440906817802968,0.04309236160251487,1.026895985663542,-0.4031773378985016,24.592229342519598
5.450908484747458,0.16317702611257706,1.0369013276121346,-0.36507194361326645,25.54654304856556
5.460910151691949,0.25222470162867183,0.9615363752582301,-0.258728333371296,24.235373228291774
5.47091181863644,0.1250959600248729,1.0733977270710762,-0.16195435050432913,25.201452127897866
5.48091348558093,0.13282407508262883,1.219757813195808,-0.15040724769252964,24.028676415928093
5.490915152525421,-0.014757889329632352,1.2537821187644198,0.05890883555652574,24.500606438355916
5.500916819469912,0.004050566936752259,1.1983328902576598,0.05656919062734971,24.76663165821206
5.510918486414402,-0.07040698314424781,1.3093354045604602,-0.09069675603882213,24.364724782037552
5.520920153358893,0.0119245964065446,1.2164900834385226,0.18230914060172554,24.208149934637685
5.5309218203033845,-0.12901192836353365,1.0746547707119216,0.2499894403215378,24.708193056109828
5.540923487247875,-0.16968438682517867,1.0837945279771422,0.2024717247048205,25.27899425121954
5.550925154192366,-0.2928198192703109,0.9241304142534298,0.1490556476558215,24.471723884320088
5.5609268211368565,-0.34758680666284664,0.9967244389438329,0.3473019867810325,24.051590859847774
5.570928488081347,-0.38809634112750313,1.052923746767344,0.38817809257144914,24.202962959665616
5.580930155025838,-0.3500482645918483,0.9360565379724424,0.3131019810652152,25.545938080667298
5.590931821970329,-0.4747072182338198,0.9258395054961965,0.3097533885089314,24.34181152913095
5.600933488914819,-0.445038697550609,0.6664853850152848,0.4685526168687931,23.96545349144637
5.61093515585931,-0.30601216762056016,0.7363325502638449,0.4689029753808544,23.67845787088015
5.620936822803801,-0.46394840975376694,0.4819980980109724,0.4576218397147593,23.326402349870207
5.630938489748291,-0.6189963555164406,0.5436416687678367,0.4902673400372314,24.40953614071204
5.640940156692782,-0.4992907317081563,0.2859317405252195,0.3797248425386691,24.543486604573
5.6509418236372735,-0.6907924313998853,0.24791660480167715,0.4301842800924623,24.00627007730696
5.660943490581764,-0.881804069364738,0.21220745023969495,0.5031902173972378,24.185616928185098
5.670945157526255,-0.8041303536879453,-0.06771824215793966,0.3839551920520233,23.596387118034205
5.6809468244707455,-0.9129544067694702,-0.13917874641715325,0.21424011216842176,24.23663035966345
5.690948491415236,-0.780714402466538,-0.14334378833752573,0.29063579279381635,24.399494713447673
5.700950158359727,-0.7604656780586575,-0.3943257939746332,0.1820260969789777,23.879779067793727
5.7109518253042175,-0.6083987644177694,-0.6185269166592626,0.26233261379429995,24.981235356326728
5.720953492248708,-0.7540210319320818,-0.3732300999058563,0.2103626758768932,23.70613779857349
5.730955159193199,-0.8161892611690907,-0.7303836662631099,-0.04735423224933405,24.25514577159304
5.7409568261376895,-0.7157683871830769,-0.757340037338379,0.13259901749847375,24.526317599897393
5.75095849308218,-1.0210990232737935,-0.7405579947256238,-0.11724087416181782,24.052301217475655
5.760960160026672,-0.7745423540648093,-0.9923492145254316,0.08727102655032132,23.98553043547059
5.7709618269711624,-0.7159848070370547,-1.099356964905403,-0.13506681953658928,23.354194988323517
5.780963493915653,-0.93276653413408,-1.031400460773165,-0.31431668852595873,24.736194811265637
5.790965160860144,-0.6592703829611213,-1.2849027194485696,-0.36037177034383183,23.961510682174545
5.8009668278046345,-0.7254797801192212,-1.1733899668462024,-0.26397586813831597,24.30411087186152
5.810968494749125,-0.7835441206963224,-1.1489368424342705,-0.3858140271491263,24.360797372050946
5.820970161693616,-0.658493679568397,-1.218858235306518,-0.3987788350556956,23.699335377231538
5.8309718286381065,-0.47160966403564086,-1.3540478913080607,-0.2641262319657275,23.90380677513742
5.840973495582597,-0.6546411222789493,-1.0374725579697233,-0.5249083596637043,24.658938096612218
5.850975162527088,-0.619498258344207,-1.1730968717947812,-0.4713896075022227,23.422263751678706
5.8609768294715785,-0.6592052906430066,-1.016387917186749,-0.3502722169762143,25.034027532450718
5.870978496416069,-0.664781421290529,-1.1512639349686407,-0.4723103239643205,23.586878686446063
5.880980163360561,-0.46100222986062,-1.1690274712717053,-0.659249096703956,23.358844032932986
5.890981830305051,-0.5917352448449135,-1.0002756816466645,-0.4394114118503593,24.00408647496846
5.900983497249542,-0.4590631720086519,-0.9858195045635546,-0.5898827066839684,25.031477242772223
5.910985164194033,-0.4722379040751731,-1.0105024349670269,-0.30906261132941637,22.961233651140287
5.920986831138523,-0.3331507844467986,-0.6663068187796463,-0.5010959847646158,23.835665048457557
5.930988498083014,-0.30275483748124865,-0.7888500399527575,-0.08431706262645983,24.133804901915056
5.940990165027505,-0.18611237621818216,-0.8175357230051612,-0.19097437723845323,23.902040469637832
5.950991831971995,-0.29346898173269753,-0.40195360107192557,-0.3684895026899487,24.065763446912026
5.960993498916486,-0.22109857981030098,-0.4817128903369339,-0.23338662419891645,23.505417628041684
5.970995165860977,-0.24286487918058364,-0.384748985670347,-0.10286988997673623,23.55424964852112
5.9809968328054675,-0.13972286081142934,-0.39031235427386657,-0.03990278653517931,23.769620903101735
5.990998499749958,-0.0074923073043029614,0.07241165567437523,-0.012203932556094192,23.268655496666764
6.00100016669445,0.08072621471813449,-0.11763660741513235,0.13149997092769528,23.801069716680733
6.01100183363894,-0.036959316980536686,0.13004990897432314,0.056609661859034384,23.618900112478183
6.021003500583431,0.19222952216079978,0.32725768342611417,0.09377021955109877,23.568156874229572
6.031005167527922,0.29042884389740764,0.3878626227384444,0.15523318447019485,23.953386644778128
6.041006834472412,0.24519329086199107,0.44635137705200206,0.3322383607168232,22.87280532446191
6.051008501416903,0.4397093541394014,0.3847599676156428,0.33551341033720583,23.658639707713732
6.061010168361394,0.2218358474225455,0.5716366066369434,0.3760010369706039,24.92195977926971
6.071011835305884,0.22075303387244877,0.7632771263810985,0.4688012486805776,23.21037503010859
6.081013502250375,0.2119873423591322,0.751057277386398,0.22043654830107173,24.38637632718507
6.091015169194866,0.5825655518066982,0.9280206295101139,0.48609935395616616,23.761199961099063
6.101016836139356,0.5397901704377879,1.0457096657675535,0.4993205729951321,23.42268881913689
6.111018503083848,0.5083149409197356,1.1349566912896765,0.6591833099712214,23.054193101214654
6.121020170028339,0.5793613743218162,0.9680368414850714,0.3465160316000763,23.774751886733466
6.131021836972829,0.4741300015353522,1.3525838029800468,0.6542877593255716,24.42205757505627
6.14102350391732,0.864252373463841,1.2418723308406503,0.49743892465147044,23.491253089773114
6.151025170861811,0.663151165098801,1.1868130077448467,0.5223973236195805,23.635929487573126
6.161026837806301,0.6891533854561965,1.3072588401792717,0.6172207694897593,24.172199433087634
6.171028504750792,0.7760979349099699,1.4355269325304236,0.4747422603858306,23.828105853266756
6.181030171695283,0.7741521597447192,1.0451492870000918,0.42113539183898785,22.862242027873023
6.191031838639773,0.7681032554651711,1.1459728212040439,0.36174795753998257,23.688586363242038
6.201033505584264,0.6833870471977384,0.899758571677842,0.24026665541489148,24.386076790452766
6.211035172528755,0.8232909846270537,1.1158687454237004,0.23230804824450974,23.6023594265847
6.221036839473245,0.9749921474149335,1.082408096810083,0.10643837524880503,22.241010455201117
6.231038506417737,0.9288711167985934,0.9819312442697292,0.1135577152789937,23.796842639658546
6.241040173362228,0.9580512902826981,0.8516195147149132,-0.1774156885161723,23.494542078029966
6.251041840306718,0.7488612919752209,0.6352041204601856,0.03635806805194962,22.670313778830884
6.261043507251209,0.6991143904168872,0.7931318758085232,-0.08133961702797653,22.736403514646305
6.2710451741957,0.7804375065455029,0.8102343126932274,-0.16431511762422607,24.054763940726133
6.28104684114019,0.7903993001143531,0.5085995667457809,-0.16818596737435731,23.192278388633365
6.291048508084681,0.8829581858319444,0.5096773164849346,-0.38998523648644257,23.09603789153201
6.301050175029172,0.5899509734207801,0.20269209476820316,-0.10627813363611979,23.523340392954292
6.311051841973662,0.8948136666525113,0.295870966483936,-0.35733795366380594,23.210489377500675
6.321053508918153,0.7057902902060584,0.09923347850027764,-0.4040265399547544,23.57410434390465
6.331055175862644,0.6557866789090054,-0.050478420707746975,-0.5222188272471786,23.414267454872867
6.341056842807134,0.5713905745594319,-0.16331007741434078,-0.45280622684379507,22.90723573914397
6.351058509751626,0.4785862374217629,-0.23889705339450407,-0.3388453549733828,23.243299641022734
6.361060176696117,0.695317150749609,-0.27178306071357233,-0.3887565820130554,23.711999492744457
6.371061843640607,0.5868400391593063,-0.548980476466182,-0.41394407607578054,23.50336575148926
6.381063510585098,0.4147324859815338,-0.561504113912146,-0.4439093371097898,23.433279321413373
6.391065177529589,0.37629446875496564,-0.6253351720124558,-0.5256998288975954,24.434846768496556
6.401066844474079,0.4323008099200067,-0.8249717845089931,-0.6184305070496552,23.823638069674853
6.41106851141857,0.5910191407656928,-0.6229321021394123,-0.46961817113218063,23.876365489572894
6.421070178363061,0.35472120760834247,-0.9683526348980417,-0.44211007454113577,23.359247409472395
6.431071845307551,0.1854265297935036,-1.0225110336791678,-0.2760495639021498,23.544452483286115
6.441073512252042,0.2649015437691002,-1.117477883502849,-0.3063865650387372,23.21103999669725
6.451075179196533,0.21479570856409338,-0.8948253509295848,-0.12716946015948327,23.80763711381509
6.461076846141024,-0.07598403387725683,-1.064867053020456,-0.11517699819709337,23.355996960020217
6.471078513085515,0.139146990161072,-1.2493550822249857,-0.2233944977193313,23.514783211690073
6.4810801800300055,0.07178410270729134,-1.0703495753053467,-0.2972728637821146,23.47636045783249
6.491081846974496,0.11442470795486925,-1.1756938213675996,0.08264033497566292,23.37949517770434
6.501083513918987,0.17944931657661625,-1.1742120889599448,0.14274623070641693,24.85026010100468
6.5110851808634775,0.05698134683949952,-1.2279046141335126,-0.06719595128201683,23.040507807799116
6.521086847807968,-0.13257309072681775,-1.2513212169306078,0.2818714676464885,23.02867728089447
6.531088514752459,-0.26592865174304725,-1.1150806256992103,0.22861563318203404,23.706361526786235
6.54109018169695,0.053081088183655395,-1.1656428403739951,0.26292513303550535,23.054573554352533
6.55109184864144,-0.2465055105892527,-0.8818696452109271,0.46089320365814795,23.19936484939393
6.561093515585931,-0.29821033916013756,-1.1334421617698498,0.48171816677105783,22.794837885232628
6.571095182530422,-0.34800890009747376,-0.7869283594403059,0.45473935795636966,23.57686328653194
6.581096849474913,-0.3704166726748637,-0.8773557902181757,0.4731382132212384,23.576319821893456
6.591098516419404,-0.4477493936178425,-0.7543039742111752,0.5169485628243252,23.159768222630518
6.6011001833638945,-0.5320570969624514,-0.611922368031727,0.43761312954108544,23.6680120994993
6.611101850308385,-0.5688803217322159,-0.6631156323006606,0.48688362407307656,22.374847467767506
6.621103517252876,-0.5549433190942207,-0.4131902002638405,0.4091690201381155,22.943856474307278
6.6311051841973665,-0.6413061264491189,-0.6654576642710557,0.46522525416557586,23.205734025146175
6.641106851141857,-0.6912266354028268,-0.35828589057807225,0.45312961831805415,22.698090314790807
6.651108518086348,-0.6398299986122193,-0.2677349267717616,0.4097993433437661,22.403450747707684
6.6611101850308385,-0.7039337318883642,-0.18816420809358203,0.4630742241490796,23.11750299896151
6.671111851975329,-0.5533213306470707,0.02876367229303342,0.3859815227415143,23.612173002982622
6.68111351891982,-0.9913240401970811,0.2014606634205347,0.43098282041234093,23.899997644367968
6.6911151858643105,-0.6367157623097419,0.3443319105539173,0.17490022576975325,22.979148753102933
6.701116852808802,-0.6379527411617304,0.40690039162183855,0.2768511984815854,23.613318859317964
6.711118519753293,-0.9835846125671608,0.42159116977464134,0.24784984329629334,23.558969445274478
6.721120186697783,-0.821134169859621,0.6260755695005622,0.14643724894705895,23.844059476504217
6.731121853642274,-0.8315228848351266,0.6973846128548549,0.10026618074247656,23.05378654933028
6.741123520586765,-0.9395072603577822,0.8682620339051523,-0.10286762076048543,22.323828436101362
6.7511251875312555,-0.8777616762297982,0.9351722651035823,0.028578184272070737,23.252438402291524
6.761126854475746,-0.9091033006867048,0.9357348374209921,-0.004923906670430064,22.704785797594454
6.771128521420237,-0.6177338088604455,0.9098891408724342,-0.0818464220375974,22.844337928792694
6.7811301883647275,-0.6911776536636649,0.9923710667175575,-0.0867732983152501,23.049959570630197
6.791131855309218,-0.6462765590476478,1.0513477403556528,-0.22693129397804057,23.025655048449757
6.801133522253709,-0.6868980373038581,1.1136375313746474,-0.2517564229898384,23.26051949641363
6.8111351891982,-0.8546069137758143,1.2006387512515735,-0.33182892230305905,23.536010509815355
6.821136856142691,-0.7738621226826203,1.263598188828811,-0.3210152500485384,22.995328748007122
6.831138523087182,-0.6493329743139497,1.1946314034435446,-0.5836766538804726,23.37188138715821
6.841140190031672,-0.7945868728164266,1.1983657203139926,-0.5447753743844523,23.176348843128242
6.851141856976163,-0.5725234725903682,1.1974678352236237,-0.31900630516907497,23.631668551593066
6.861143523920654,-0.636763355720185,1.1074255282033205,-0.738482782308427,23.064678453000337
6.871145190865144,-0.6167014223634023,1.0320647524629074,-0.5134312760286442,23.114636770337885
6.881146857809635,-0.4723251944599106,0.9046627169589145,-0.3812815985214252,22.9620985111614
6.891148524754126,-0.4610513598052076,0.9567029154915543,-0.4990663684584341,23.063446178994507
6.901150191698616,-0.501635252783324,1.0104319241663884,-0.5137465476016149,22.74817137221781
6.911151858643107,-0.3078287204255753,0.8211742163709509,-0.43634256289489565,22.69403523817327
6.921153525587598,-0.48841814682748563,0.7881172918448331,-0.4535481907962311,23.518708657110214
6.931155192532089,-0.2737669494303126,0.7717648946790248,-0.3775046351871799,22.58479102249409
6.94115685947658,-0.22977512452667237,0.6839761094438649,-0.40527697610800284,22.96247271035776
6.951158526421071,-0.27262336677543164,0.42512854706313724,-0.1771052218048655,23.62541720315232
6.961160193365561,-0.1606848192057013,0.5292291918709501,-0.09213694988528645,22.937183800273115
6.971161860310052,-0.2692757640122129,0.4348859400744461,-0.19059439262482383,23.52376731164647
6.981163527254543,-0.0020588487119230225,0.09893323318215343,-0.25589986717026236,22.80981177412028
6.991165194199033,-0.0628759876951798,0.017420191898811346,-0.10778107397409771,22.575765204071935
7.001166861143524,-0.04640707076329662,0.10591244569831142,-0.011067523942671773,22.300021433120445
7.011168528088015,0.16099400410826653,-0.14076530303893103,0.1204976706256243,23.749958883607597
7.021170195032505,0.035665115154570576,-0.4598216065372136,0.030651478953876696,22.521399033179954
7.031171861976996,0.014840891500485648,-0.48746400127174094,0.1139718082478361,23.459741129286815
7.041173528921487,0.04899701037434223,-0.47899942692181513,0.2983794719133808,22.582563111852558
7.051175195865978,0.313425861004913,-0.6729017096892782,0.39372500490924944,23.73769309865391
7.061176862810469,0.17194875195501716,-0.6955327576668877,0.28546684304856806,24.178932879457513
7.07117852975496,0.5214536019889968,-0.7427351204495023,0.2566125689702543,22.228892864427483
7.08118019669945,0.18239788244725866,-0.684910111985048,0.7545025772067099,22.526472187596834
7.091181863643941,0.6033111021871941,-0.9379621185361173,0.533855720214029,23.452185110879906
7.101183530588432,0.4961298042841387,-0.8713734043836299,0.4510731616319219,23.31898580646751
7.111185197532922,0.504843995002213,-0.8967731638102938,0.5793876236543747,23.447846954064232
7.121186864477413,0.49747941248117683,-0.948008734538772,0.48698043056051876,22.769506571041962
7.131188531421904,0.6271618428684355,-1.1050638398905266,0.5852045094203522,24.04722650251704
7.141190198366394,0.6164432985082787,-1.361903084554565,0.5056267830913439,23.10963610282214
7.151191865310885,0.7610470056728657,-1.1411773880447977,0.48228806063773266,22.439359012711808
7.161193532255377,0.6900806931039626,-1.0935638769103326,0.4378115772305139,22.918572076386333
7.171195199199867,0.7189499696434439,-1.2070139058242875,0.27335448973404286,22.440746103574522
7.181196866144358,0.6900414617574785,-1.0143070072673084,0.5742292061123361,23.83546075959425
7.191198533088849,0.7403232750429184,-1.0820851558626323,0.24259197338157384,22.707362381179927
7.201200200033339,0.7934679958397243,-1.0801729789669174,0.15175621310184464,23.281385188080243
7.21120186697783,0.6053299775904876,-0.9871985925499241,0.21294615212860407,22.797499901379947
7.221203533922321,0.652122365129629,-1.0116060610772273,0.08086331793376718,22.72291353329371
7.231205200866811,0.8687546758342055,-1.234052400076307,0.11182508826713242,22.07332858601692
7.241206867811302,0.8158658789095108,-0.9657697367940375,0.12391290323678704,23.325469325780077
7.251208534755793,0.7815786022956333,-0.7190916207409553,0.09193713412315772,23.673976939263127
7.261210201700283,0.7998597342823303,-0.8350723357886649,0.011270030400583539,22.56448483077964
7.271211868644774,0.8276634609191165,-0.6854676625519286,-0.16226862051194293,22.248014468058916
7.2812135355892655,0.7306879938262414,-0.670523388940766,-0.18617084084798782,23.420525619253866
7.291215202533756,0.6954944184575607,-0.2855409606778583,-0.20675148878441157,22.194063733450527
7.301216869478247,0.7785173683624412,-0.18955816103657658,-0.4758223625212302,23.625345990360085
7.311218536422738,0.6437073574306964,-0.33669238878066304,-0.29075593363505436,22.561855442933823
7.321220203367228,0.7620541897721637,-0.12196908022734222,-0.5358280485429626,22.46095854295127
7.331221870311719,0.5278075230473279,-0.0919279128524538,-0.2221930471437914,23.135466519996136
7.34122353725621,0.7750625511049518,0.1506483459598661,-0.49608469896134855,22.490874601193816
7.3512252042007,0.690834298281511,0.2523629800957723,-0.49633819143632557,22.65517622751018
7.361226871145191,0.6380643448470762,0.393017830906143,-0.5695003669651267,23.18458889702014
7.371228538089682,0.677199380321758,0.45272281920351937,-0.5624355702372331,21.79198660747668
7.381230205034172,0.7096611020194633,0.8170302684771036,-0.2710590529150073,23.826775968916614
7.391231871978664,0.606589903822324,0.520007865484957,-0.3955975215654963,23.0264887451555
7.4012335389231545,0.2811104417480319,0.5455206398830775,-0.6279964159372023,22.357366804218948
7.411235205867645,0.2954486003982676,0.7646901460299583,-0.298633384278744,22.49448708814158
7.421236872812136,0.3174613233213117,0.7274797991837397,-0.2986247311898933,23.498271784371056
7.4312385397566265,0.33758920819361177,0.8074603236725607,-0.4083709897830075,23.30239277143559
7.441240206701117,0.34046047323545336,0.9205083859046865,-0.30588207180629495,23.694753250396783
7.451241873645608,0.1686949325569222,0.9832919715818954,-0.2890388066905243,22.659567046284742
7.4612435405900985,0.21156823587918844,1.0253705716368229,-0.03674278413446164,23.148884880034267
7.471245207534589,0.0682140031625123,1.208023894445395,-0.25639460851056406,23.213610369606602
7.48124687447908,0.032893739332067934,1.1306867608977142,-0.10214071648168932,23.34777258610703
7.4912485414235706,-0.09669864522925675,1.1779690309923818,-0.09769079779672056,23.56367079738107
7.501250208368061,-0.09860749266186428,1.289339975861545,-0.1354490727522747,22.641368664133736
7.511251875312553,-0.19167945211215426,1.116626561863563,0.2896261068403994,22.942964847442983
7.5212535422570435,-0.2041020429466235,1.1495513619392101,0.013801334765738638,22.695103453727434
7.531255209201534,-0.05073375904730823,1.1848872980747323,0.21338487344816187,22.97407971089203
7.541256876146025,-0.30000479606794694,0.9162639788414666,0.0736968010958319,23.34988832732544
7.5512585430905155,0.010015898070229012,0.824180210400575,0.26034598233835066,22.174019431252404
7.561260210035006,-0.25104823369791524,1.0400970130889469,0.3901993464847056,23.556167153142205
7.571261876979497,-0.3278682689427453,0.9885734951904072,0.3077884602703031,22.432413417709917
7.5812635439239875,-0.4767921686193413,1.0713401566267025,0.48504472517281716,22.84892133516339
7.591265210868478,-0.36398647141854584,0.7985940742973261,0.42883685034432306,23.625258352631818
7.601266877812969,-0.5329288712020457,0.7756746357170163,0.5939359298158196,23.16805199735421
7.6112685447574595,-0.5026350622014712,0.5789100892715984,0.6287507742405928,23.174650683781525
7.62127021170195,-0.2962660450481203,0.5276230458087009,0.440776427528798,22.415490048246376
7.631271878646442,-0.5971386424520707,0.5596481069141664,0.506121148384119,22.48475621795536
7.641273545590932,-0.5055439776479578,0.07205647080968214,0.5079268059083275,23.478502213566188
7.651275212535423,-0.7212780776164197,0.214825017660977,0.5349262718275755,22.714455743798503
7.661276879479914,-0.682378509258977,0.2744895178738246,0.4503776611134316,22.762803707590827
7.671278546424404,-0.5270387008776716,-0.023939286930293846,0.43682627564072773,23.49354597520073
7.681280213368895,-0.7892748131649083,0.00030401032830848496,0.3557390191734371,22.48800280839215
7.691281880313386,-0.5649241669351541,-0.338822229046913,0.3478820610090669,23.149044850031732
7.7012835472578764,-0.692038974779089,-0.38780375877106427,0.41712416725923707,23.037427062330586
7.711285214202367,-0.832694509064534,-0.48652966899131994,0.29837766870121907,23.016255004061357
7.721286881146858,-0.7237754145070165,-0.8125746997948151,0.246646195404789,22.760082806735983
7.7312885480913485,-0.6972220717960154,-0.8033209590707078,0.1887941879928377,22.731154008316043
7.74129021503584,-0.7366213640228135,-0.8857827877043754,0.039235118176504054,22.48375864388113
7.751291881980331,-0.9569961169887988,-0.776589803698255,0.023765927022898044,23.266210442468342
7.761293548924821,-0.8707004645402957,-0.8466569552569102,-0.17923886941770223,22.692818537793737
7.771295215869312,-0.8176013736662803,-0.9682525978516604,-0.005329768497795012,23.513358569092098
7.781296882813803,-0.7920255584541499,-0.9761450739092851,-0.4699098765357511,22.918879700860927
7.791298549758293,-0.7111502916113592,-1.1234704835925209,-0.2567091008777683,22.50418069255045
7.801300216702784,-0.7410301337687252,-1.0255329768983499,-0.18637277233975696,22.91682537544336
7.811301883647275,-0.8749217662348674,-1.1733449665725038,-0.484577222959959,22.832707667985737
7.821303550591765,-0.6830277494512701,-1.1865091069438891,-0.35044749786663487,23.54516940129869
7.831305217536256,-0.6368025705345701,-1.2263400505926612,-0.49457790089273945,22.858676407538685
7.841306884480747,-0.6159406536900903,-1.1281681278399316,-0.4927289301023404,22.907707396092185
7.851308551425237,-0.5352475354189032,-1.2249406836720682,-0.3834104563008339,23.754299197661773
7.861310218369729,-0.5287995435063692,-1.0608829916399787,-0.47281388109611894,23.30544983041525
7.87131188531422,-0.5327230555531837,-1.2371597848017104,-0.7028986899674188,23.88553645880417
7.88131355225871,-0.5498225460646817,-1.1892756995593303,-0.5960697323356052,23.68665007707097
7.891315219203201,-0.670924058502107,-0.956496720478876,-0.39199456833924046,22.61656713194419
7.901316886147692,-0.42189514406856704,-0.9708460100180611,-0.42801211160999625,23.55822131196449
7.911318553092182,-0.40228200854742396,-0.9355913724616891,-0.2740105682579814,23.829071474669636
7.921320220036673,-0.35241656019642303,-0.7215029693233845,-0.24939652672566665,23.836076698547387
7.931321886981164,-0.4622744619350338,-0.784344865858417,-0.41413399853066446,23.567044659453586
7.941323553925654,-0.3964094669207547,-0.6503238008196682,-0.08584050986228814,23.560160800555924
7.951325220870145,-0.13555455339980982,-0.39146934731971916,-0.28466785127837996,22.928547382481167
7.961326887814636,-0.1964404599187667,-0.2738481289551331,-0.32980470391126115,22.664741291768266
7.971328554759126,-0.07519007726110223,-0.16309464970154647,-0.2396396114903392,22.910953792155365
7.981330221703618,-0.0907976252251515,-0.23827489686905415,-0.34190501228196357,22.258373613227064
7.991331888648109,-0.040573528852721134,0.025145272096181656,0.10634618857143038,23.76594683232999
8.001333555592598,0.10053148368712539,-0.07981352142228265,0.167854783638976,22.956759004602734
8.01133522253709,0.005324413256746673,0.037264342257403396,-0.03057004144313552,23.748002255262026
8.02133688948158,0.11654199957167077,0.004645800097937802,0.10967461048644436,22.490593450005264
8.031338556426071,0.11028128459943468,0.5165867346513194,0.2014164137651908,23.651736830255757
8.041340223370563,0.1620202076610891,0.36940901492276634,0.15218628832868505,22.86713979388586
8.051341890315053,0.2227024691643285,0.5456137040957834,0.12516141831885935,22.476625630007362
8.061343557259544,0.3229816551524003,0.5647376221120696,0.3273425389847902,23.936673862336644
8.071345224204034,0.2988546216815653,0.8169670746596751,0.35848107101712995,23.681149293939324
8.081346891148526,0.5168974633055178,0.7949310428920537,0.3877967313048203,23.237842240373183
8.091348558093015,0.3449086041107285,0.7796648378637334,0.47822772887872683,23.153441316019816
8.101350225037507,0.4570148248090413,1.0238836847430066,0.6210332609148481,23.360827319442777
8.111351891981997,0.47118353412306396,0.8972163887509674,0.46235505739404165,23.243059947323477
8.121353558926488,0.6972753135636327,1.0084813592332134,0.5165194656520042,22.754354256803953
8.131355225870978,0.6074723900480187,0.9234676916853424,0.5710934099623629,22.94928571426636
8.14135689281547,0.7239201355867021,1.023625255039058,0.5448890587947417,24.14056322985792
8.151358559759961,0.5026478369087564,1.205385312608224,0.4113789424365077,24.501247806032417
8.161360226704451,0.7058062325869645,1.00204598777317,0.4583463787545096,23.951541268333855
8.171361893648942,0.7932806218450204,1.0507107035982615,0.47227126002206654,23.414428827978817
8.181363560593432,0.7349817314590175,1.188269665692206,0.2669040664388723,23.01162424310933
8.191365227537924,0.8528680409265306,1.1132743659023951,0.4623243153141744,22.786659568817612
8.201366894482414,0.7112114634891595,1.3355997529245187,0.4300603004021605,22.82493671412133
8.211368561426905,0.9174833771740719,1.278456685015007,0.1610282667691545,22.91984093052001
8.221370228371395,1.016981066009971,0.9572225943612165,0.19539757182984577,24.277524844930813
8.231371895315887,0.7582426931583388,1.0394065756643243,0.18020564171745634,24.11062304464954
8.241373562260376,0.7542749141830583,0.9895648066305124,-0.00046600199737570347,23.58623095280603
8.251375229204868,0.9453085823899393,0.7777113186835507,0.03952099473248044,22.738465598610233
8.261376896149358,0.9559141486673636,0.6032918806271036,-0.054914321196784466,23.671050922420317
8.27137856309385,0.7405075096873216,0.660318478094733,-0.2795073259560782,23.111035333221153
8.28138023003834,0.742481572352145,0.5470921381878916,-0.14618130119274003,22.159729902854224
8.29138189698283,0.74493143879637,0.41861752202564423,-0.35846309899460505,23.385745369229685
8.301383563927322,0.6242223656692522,0.4001390913612611,-0.20696050521265358,22.827268376731777
8.311385230871812,0.649364627563785,0.17138776484455054,-0.4156871810995905,22.850297209363124
8.321386897816303,0.6204518804826267,0.019625960096495407,-0.4068809745460074,23.135287893163653
8.331388564760793,0.6208764587579991,0.03290187989706466,-0.28954644622371184,23.017567065214223
8.341390231705285,0.668223736583305,-0.05243682151215532,-0.4064253519562877,23.25590525327463
8.351391898649775,0.666497962732007,-0.32091744685485674,-0.5861052986047693,23.238241699364686
8.361393565594266,0.7669720278964398,-0.22085832439901093,-0.594200607009953,22.34794368821026
8.371395232538756,0.4785162822603552,-0.5983448708003194,-0.5594173702635206,24.052496183675704
8.381396899483248,0.6409303832491333,-0.5829967687033969,-0.458920991791138,22.80724521965153
8.391398566427739,0.48310401011035864,-0.6502118061692569,-0.4535912747285137,22.82937795803232
8.401400233372229,0.4595695686315461,-0.7817146911809882,-0.5570463071297177,23.148011009390018
8.41140190031672,0.49017709065184767,-0.8619037727989607,-0.5653140328801967,23.264897346497275
8.42140356726121,0.2669334004876286,-0.6984445337597198,-0.3892148148718524,24.05539819606485
8.431405234205702,0.3724599883889128,-1.0429318065690194,-0.39775481730056444,23.46752964345322
8.441406901150192,0.3045581963261427,-0.7775079227141359,-0.12005485721614717,23.623026128695898
8.451408568094683,0.28971542393689664,-1.032633032032679,-0.2830265571597402,23.484102513615262
8.461410235039173,0.22099514123706976,-1.112298907587487,-0.051649387403258556,23.469671530162017
8.471411901983664,0.3884579722793463,-1.1090812280976452,-0.29282382662534057,23.51597681481281
8.481413568928154,0.029439381942405432,-0.928642912169823,-0.273044392497278,22.401981038403182
8.491415235872646,-0.009968886294375506,-1.295433634757144,-0.16584361343453857,23.250689349985933
8.501416902817137,-0.06943608893245305,-1.3119347959831358,0.12781517071381332,23.96414377840237
8.511418569761627,-0.11289447690989199,-1.2685444098531677,0.24710920464584982,25.36160721638433
8.521420236706119,-0.17108380951170454,-1.1724150680427463,0.054749995267650384,22.795779296366764
8.531421903650608,-0.038017992198945416,-1.320339641518801,0.14628255056912326,23.617029062373582
8.5414235705951,-0.06382427247539127,-1.107470735734326,0.1317779620344953,23.127584082397952
8.55142523753959,-0.3110916144293655,-0.8924389781727614,0.11992589208421853,24.4446142810988
8.561426904484081,-0.38439200701764953,-0.9893142883481655,0.4205949219943622,22.75164027192926
8.571428571428571,-0.29996543565540457,-0.9674663248591658,0.41321777153022987,23.74880678022188
8.581430238373063,-0.44690950800432866,-0.9254262910017946,0.42795950095881624,22.74059861936921
8.591431905317553,-0.3714279084058355,-0.6915035232657065,0.31616513180928263,23.292849409782143
8.601433572262044,-0.4557464573270701,-0.7747447484034162,0.6422300552818435,23.442965780651885
8.611435239206534,-0.6670515064544744,-0.41218293527387145,0.4424177615679335,24.003018801108873
8.621436906151025,-0.3981298797057403,-0.30284840486605097,0.5528615225211998,22.93770055544365
8.631438573095517,-0.40851324379750076,-0.3654655170590442,0.35290816546052695,23.816146674986538
8.641440240040007,-0.6822787518166427,-0.2837753746959711,0.47031509311576175,23.502075045361003
8.651441906984498,-0.6902172907239105,-0.06853172879942733,0.5017881744229372,23.63737343592302
8.661443573928988,-0.6507360264767835,0.05043191773789134,0.4811849009744061,23.988492857838217
8.67144524087348,-0.6710704479683964,-0.026573040204260996,0.43269377261599995,22.87645678056719
8.68144690781797,-0.6610739310995538,0.1139649854260237,0.42885056636239505,23.931499777008028
8.691448574762461,-0.5454503255524255,0.1455006930303194,0.22253033999829674,23.250275229662073
8.70145024170695,-0.7807609621890103,0.42729084736478723,0.3062096176722673,24.091247615198338
8.711451908651442,-0.8564789463235714,0.5582653414035728,0.24421875246094205,23.719230463247836
8.721453575595932,-0.9250980258274981,0.4574632359489288,0.19870758384564605,23.455885399019092
8.731455242540424,-0.8676683677435264,0.6425287242768923,0.12270287102705087,23.274391391066267
8.741456909484915,-0.8021604506136485,0.6428068350858422,-0.0737465054269881,23.98986315491955
8.751458576429405,-0.6205106186153335,0.7702321274669061,-0.14094396807009432,24.21755893093839
8.761460243373897,-0.849688032297033,0.9901567366390789,-0.2931850065070355,23.32958054636202
8.771461910318386,-0.7703585021089724,0.9283473662452131,-0.05146688568301663,23.038481708242507
8.781463577262878,-0.7860603670396885,1.0293594365347398,-0.10981507057761086,23.961124278112944
8.791465244207368,-0.6541627586304736,0.945050503066247,-0.16454815142308954,22.898841785540135
8.80146691115186,-0.5058411490336236,1.1649843160028777,-0.27061988439409734,22.979493913173645
8.811468578096349,-0.7941589880724703,1.1701836829478305,-0.5622532569743048,23.110096884035396
8.82147024504084,-0.7696281263202416,1.1196114057022892,-0.4937499932591649,23.44297232134175
8.83147191198533,-0.5930350064367846,1.180913910692658,-0.4100054089761598,22.99183544522545
8.841473578929822,-0.6032754189885127,1.2144996442250668,-0.44272612905939246,22.699958180603087
8.851475245874314,-0.4581564620468852,1.1010146649411683,-0.5005855577114562,23.11104533256322
8.861476912818803,-0.5532592119183963,1.010407085301697,-0.4559060653887041,24.009466124846515
8.871478579763295,-0.6139913596598744,1.3038404323548194,-0.498345360923323,23.06197014106852
8.881480246707785,-0.4831246800363705,1.0152317068511325,-0.4862660286131031,23.53717204177674
8.891481913652276,-0.39330732749857505,1.014582399845393,-0.5532203670093021,24.69027186588473
8.901483580596766,-0.38212656769987696,1.0619473973719318,-0.3743641526994882,23.70200199422266
8.911485247541258,-0.3716119865730065,1.2418424230570364,-0.49143871189381366,23.90757126748027
8.921486914485747,-0.272169188416812,0.684668844049025,-0.5501494750824933,23.27305238198687
8.931488581430239,-0.21690877248486204,0.7670966182819043,-0.45632762082646583,24.83762595587986
8.941490248374729,-0.1493061600667003,0.5579434067180725,-0.37023485234598935,23.49510655414417
8.95149191531922,-0.17519970163182225,0.4758221103218092,-0.18685743403945665,23.661615468343868
8.96149358226371,-0.2083833645142536,0.3539792129331297,-0.23683803403951975,24.44415951206348
8.971495249208202,-0.12784436173724717,0.20595172288120894,-0.19390993779251275,23.70477337038895
8.981496916152693,0.027853624317467893,0.20407676478814712,-0.24007991085856326,23.829642765793075
8.991498583097183,-0.12440603087954202,-0.051404352464028205,0.025233829928957084,23.674959260404023
9.001500250041675,0.044408298424514395,0.07771389378346168,-0.05576942476560254,23.68853904375357
9.011501916986164,0.01843074694933005,-0.1243286991218527,0.06201452458705017,24.02140441491051
9.021503583930656,0.11063472453892426,-0.19929487002673818,0.28149100382509773,24.12286914279971
9.031505250875146,0.28517562037543775,-0.3977219771688911,0.24369876984736535,23.535063028732573
9.041506917819637,0.22538941448589422,-0.4942708036439147,0.08630483500237623,23.48398186348258
9.051508584764127,0.2590578737498419,-0.5311787110359086,0.12455677821883676,23.572833637285324
9.061510251708619,0.16555892473615563,-0.7737531766602253,0.3426977774802265,23.18719859780809
9.071511918653108,0.4221097601498204,-0.7847235564019454,0.26996797818751983,23.103078320222163
9.0815135855976,0.4566008670993334,-0.9198125421448317,0.49203775642643766,24.057388375657695
9.091515252542091,0.6513981991396652,-1.000430961514987,0.4606112545151288,24.38865714907727
9.101516919486581,0.44559757555168333,-1.1917886782091096,0.4949254314205922,24.365479015577474
9.111518586431073,0.5377124413573359,-0.9075943750950647,0.422167682673589,22.74960011152667
9.121520253375563,0.5781214912944741,-1.16165534152334,0.673660411883508,23.828744421073974
9.131521920320054,0.7461302765086033,-1.018433502198748,0.7825810804833915,23.410953618893664
9.141523587264544,0.6117343603504699,-1.0595858526072173,0.4614014488058756,24.044631939836158
9.151525254209036,0.6795923691677302,-1.3164019562437252,0.5077835690660732,23.77465565282714
9.161526921153525,0.7403333897679336,-1.3074334828779484,0.45798733422706356,24.29036769705735
9.171528588098017,0.7233754307556668,-0.9426901019361151,0.3909714145401887,23.99571924257635
9.181530255042507,0.682459823389169,-1.0131521926438882,0.2958499711563077,23.0682181664721
9.191531921986998,0.7660303500105249,-1.1703505683628275,0.22669719009068273,23.543638354619368
9.20153358893149,0.8705551360973068,-1.1100517464539679,0.1724832635664813,24.04107444354236
9.21153525587598,0.6740980676490509,-1.1573793345794354,0.27290342304112325,24.09427567944681
9.221536922820471,0.8005377039407284,-0.9998487867875788,0.12308242047121859,23.357458187344353
9.231538589764961,0.7246118788924739,-1.0543300396099384,-0.14287052914156248,23.30317997603894
9.241540256709452,0.9183747841402228,-1.1166503791407356,0.09753989358214812,24.110682404586974
9.251541923653942,0.6476437653892273,-0.9682634971210546,-0.013513714075688039,23.391912221810184
9.261543590598434,0.7420044671362588,-0.7492677337978566,0.06239088684685748,23.270653089909963
9.271545257542924,0.8304020522436388,-0.7730813247241396,-0.09641277929265754,23.893654821289203
9.281546924487415,0.9408880886021631,-0.5694400072717996,-0.3409313586837983,23.883294207933577
9.291548591431905,0.76631903416728,-0.5679196863927337,-0.47232489475223705,23.699643646540387
9.301550258376396,0.7028812057741302,-0.43234191610252654,-0.37366387881409074,23.79833604675869
9.311551925320888,0.9290299030558663,-0.1592988128621814,-0.41182695610361386,24.168516586299347
9.321553592265378,0.5757008192918485,-0.10820416189860917,-0.2970891078723633,23.8129445820976
9.33155525920987,0.477365186083035,-0.021075045494341624,-0.4282061886660495,24.219834512420658
9.34155692615436,0.715238171438441,0.18080995209658665,-0.34312299172659677,24.005743907010917
9.35155859309885,0.5923723010338868,0.2531715902192658,-0.6109463470141981,24.291327178232276
9.36156026004334,0.5092586328300952,0.4601430521754035,-0.396359642397592,24.658160105618133
9.371561926987832,0.6486081010261892,0.37707557352675325,-0.42743450868227384,24.650267308514966
9.381563593932322,0.5662621054927788,0.483916403697763,-0.700123614676299,24.88636506728114
9.391565260876813,0.4474444752378913,0.49590919528815697,-0.3569440903328104,24.67297965038338
9.401566927821303,0.33580306487676836,0.6767038203554492,-0.46304805838470353,24.38486080221862
9.411568594765795,0.5092292549349555,0.9032712863164067,-0.4089250754985889,24.060571055371152
9.421570261710285,0.44348772600861547,1.0168218897275048,-0.5032851318864016,24.09513979151618
9.431571928654776,0.32353997135622514,1.0550083972943973,-0.2513615110670905,23.861893056060875
9.441573595599268,0.4717947635887399,0.8431986303320768,-0.4535848854655894,24.314835424303496
9.451575262543757,0.13266254077419024,1.1854924224910532,-0.20261898707789439,24.67308073520961
9.461576929488249,0.03871226646099887,0.9383218303550437,-0.15008679545612602,23.97339609242551
9.471578596432739,0.07291265640025478,1.247017404877358,-0.2722213154975301,24.329490075792734
9.48158026337723,0.0878225372142735,1.145184337985995,0.08363344810668678,24.021312746537138
9.49158193032172,0.06662805157433128,1.2664785594632535,-0.029640851418962194,24.476591156535935
9.501583597266212,-0.03208350250201661,1.066621513374257,0.07533863939212629,24.10916723403871
9.511585264210701,-0.022976935877055467,1.3099705845878675,-0.08017658324984739,24.026072907242884
9.521586931155193,-0.2333293005759449,1.0287524373424395,0.3457503054937868,24.06783797192108
9.531588598099683,-0.013364719364977046,1.0803654345901563,0.07084981439333564,24.67150221880205
9.541590265044174,-0.21489937936113532,1.0091763586531228,0.35207279647569106,24.38350255315175
9.551591931988666,-0.14308179988287756,0.8854855157064816,0.20244822436843862,24.229728250745744
9.561593598933156,-0.2676600106255888,1.0128750521516914,0.2876046294926211,24.586725186599036
9.571595265877647,-0.30218639858819546,1.1176300868916695,0.47044331331661843,24.260870128614545
9.581596932822137,-0.33544085885176045,1.1289907397745016,0.5302102633875444,25.04351349060149
9.591598599766629,-0.39065338811768613,0.7896384508818722,0.32947018495130276,24.00546829882419
9.601600266711118,-0.4124396320504504,0.8022886972657222,0.5875862140582689,24.411082496980253
9.61160193365561,-0.3832023277579477,0.6183956917389885,0.5974280751742042,23.814372085591717
9.6216036006001,-0.5338335773290476,0.5443555304078037,0.40574932381582135,24.35552302757443
9.631605267544591,-0.5177683488357538,0.35514294057618756,0.6581433220857482,23.7013666038044
9.641606934489081,-0.630501343459035,0.300298974117843,0.34346593074814336,24.92658486237089
9.651608601433573,-0.5079213981819946,0.2234794742625413,0.40983078306769105,24.948938368858965
9.661610268378064,-0.7474039558863295,-0.000681098527519429,0.49591359136123175,24.970048608153885
9.671611935322554,-0.5248186733559829,-0.06365885359287367,0.3312941976276042,24.60469346414702
9.681613602267046,-0.731293606980121,-0.17433031212756883,0.4050972114484896,24.16263190580939
9.691615269211535,-0.8898492274654076,-0.1969288416572107,0.35891283225233267,24.21472237145245
9.701616936156027,-0.7505070319888051,-0.4947719611879874,0.2669058823317086,25.392319502833
9.711618603100517,-0.8449549260367671,-0.4984759743614951,0.31515565580106675,25.357427535965684
9.721620270045008,-0.70325079922869,-0.4028939983927159,0.15172314986361954,24.71323630453798
9.731621936989498,-0.8599347370303866,-0.5731863397151362,0.13760314322282535,24.40652519567394
9.74162360393399,-0.8435106134028885,-0.6440493499099622,0.16718050062937764,25.36105066632773
9.75162527087848,-0.9889123604752832,-0.8589824985145634,0.06885745283040384,24.341896882597965
9.761626937822971,-0.8430968144375004,-0.9041357311143884,0.005807169699862613,24.81599485162827
9.77162860476746,-1.0350121474739946,-0.9025088146251672,-0.24914751486287495,25.38998246999325
9.781630271711952,-0.942643361171846,-0.9043005327885106,-0.141067707215337,24.30827943157948
9.791631938656444,-0.696744356995504,-1.3036653664374105,-0.33766088636818864,25.153516141286453
9.801633605600934,-0.6796877014115281,-1.2783857476254639,-0.43027556711854686,25.011650724491908
9.811635272545425,-0.6982103220711277,-1.0440509096863873,-0.3568613442987152,24.744087852302687
9.821636939489915,-0.817017653315821,-1.220405141927187,-0.4821602011625665,24.279614446759506
9.831638606434407,-0.7018114137429761,-1.2670190111690618,-0.34852899949068805,24.426605322185516
9.841640273378896,-0.6713689547394165,-1.3217402822899555,-0.37525170699860766,24.946053034172625
9.851641940323388,-0.7581645450119977,-1.2376809091301815,-0.6688774452664282,24.10216924168201
9.861643607267878,-0.46077180078892066,-1.2977746201015115,-0.575804089259198,24.89172706182888
9.87164527421237,-0.48974637450136327,-0.9135089076557168,-0.6455344355683907,25.109404975035318
9.881646941156859,-0.5636701738991176,-1.079974823631498,-0.5445197129279438,25.344020282976672
9.89164860810135,-0.5008382689867773,-1.0290699504144802,-0.44357981155169945,24.164768240936503
9.901650275045842,-0.4426538156683584,-0.9009252200377798,-0.49645085541830414,25.5346123812808
9.911651941990332,-0.6258010256448263,-0.7914348667322055,-0.5068729332189958,25.73671731196277
9.921653608934824,-0.4028161935081898,-0.7131354227667923,-0.2864883646055842,25.106662563048722
9.931655275879313,-0.40127511728891607,-0.6132450926396338,-0.6090300067998909,24.395117589279547
9.941656942823805,-0.38690199104213996,-0.6901765984157932,-0.21092351503112117,24.7626457272734
9.951658609768295,-0.2673813079823434,-0.5577955123071476,-0.33982718071962237,24.91546313506455
9.961660276712786,-0.01108930548562781,-0.3473342495230245,-0.23949449824611196,25.08705729680066
9.971661943657276,-0.07760687129801815,-0.36943808858632216,-0.22705017147811773,24.97538200604795
9.981663610601768,-0.1490828790093009,-0.20685963206163727,0.040094681093913814,25.11754089470622
9.991665277546257,0.015382540231345297,-0.05429020057409588,-0.17537076159388604,24.94415294807134
10.001666944490749,0.14831436737116477,0.09737043073386345,0.011646592151154185,25.13464829109957
10.01166861143524,0.15106367520981273,-0.04606506096315574,0.12579746770169267,24.78440136764086
10.02167027837973,0.11455348139359986,0.3148593180916338,-0.026618509511096067,24.85813747504212
10.031671945324222,0.09345820439929405,0.32953304510105197,0.10179855099078197,24.751784928221753
10.041673612268712,0.27691129003865683,0.5300384623649603,0.23521993948359768,26.010992388977325
10.051675279213203,0.2945570158100402,0.6392950282254619,0.2136761557920736,25.79687605520177
10.061676946157693,0.39183979089122545,0.8197160541643821,0.26831863653947136,25.35513323350218
10.071678613102184,0.41175612222818025,0.8857419923438027,0.3569070823281064,25.752698053470002
10.081680280046674,0.4977378886772923,0.9698630806802933,0.49268456662843607,25.501828084715253
10.091681946991166,0.3822521208598318,1.056966416446658,0.42253999313567375,25.205782803652788
10.101683613935656,0.6087876928540101,1.0110277576049151,0.5865331342825739,24.374906814724486
10.111685280880147,0.5361975718769405,1.0456806148365663,0.39324173147956676,25.009150743748876
10.121686947824637,0.7613142011456819,1.1810600111973417,0.37437450900381436,24.98524843838652
10.131688614769129,0.5200335574073188,1.2085909065571094,0.6908694117373169,24.598758445428285
10.14169028171362,0.7953878443358146,1.1359996004643877,0.4232471166041363,24.43473701446968
10.15169194865811,0.671966922418698,1.2285509846683096,0.3410447196427474,25.436692922558397
10.161693615602601,0.6148437257795867,1.1951725219658584,0.2735751723408989,25.365092991426113
10.171695282547091,0.6567221381284116,1.1132592700779889,0.5238714396312704,24.631641910694135
10.181696949491583,0.6954175087138985,1.3170261576519255,0.3442427209192922,24.85489221389233
10.191698616436073,0.7893384736267386,1.17227942189431,0.3090451191212464,25.820924672674906
10.201700283380564,0.8157263253143987,1.3400500472517385,0.26926314405582696,24.81393785799685
10.211701950325054,0.7195797095457668,0.9309704301732498,0.332745817456096,25.350648162489023
10.221703617269545,0.784953896584105,0.9864728239302257,0.15611541508016397,25.18281168144883
10.231705284214035,1.0089475357385218,0.9847923436150757,0.3483445691444143,25.54332372066595
10.241706951158527,0.9716685168312816,1.0259293097299689,0.0653885540158552,24.87451785458098
10.251708618103018,0.8435862664750342,0.8747015060131095,0.0954437373822685,25.360031166459
10.261710285047508,0.8016358421661177,0.7809534037407686,0.00721136017536414,25.41175602375227
10.271711951992,0.8045704801819603,0.5456728711021429,-0.13837867505820262,25.45487751629139
10.28171361893649,0.8455220541617432,0.4453522872691336,-0.2527268167614713,25.391703001569603
10.291715285880981,0.6703981164911959,0.4909625227029342,-0.21706811696683165,25.536835784747883
10.30171695282547,0.7323964144147311,0.21589416976402906,-0.25154129334294234,26.47276694647594
10.311718619769962,0.5737393498494907,0.18958158266770936,-0.40732342651224357,26.669866441227658
10.321720286714452,0.7600599833871898,0.181170123223644,-0.3754220207034119,25.081929884074626
10.331721953658944,0.7615541773215235,-0.08000885299623381,-0.3042414804242743,24.25472100860141
10.341723620603434,0.6224618449754977,0.06574254675756111,-0.24992338949257145,25.7238783502078
10.351725287547925,0.7994769288887431,-0.08457436862131017,-0.39332914473285885,25.53152830234721
10.361726954492417,0.4882646134922834,-0.47444728174460776,-0.3067850803428538,25.981177061404427
10.371728621436906,0.43075510442771137,-0.5180623226017533,-0.5625149858416564,25.605335344022077
10.381730288381398,0.5637105122476153,-0.7571508042614897,-0.4280245952163644,25.50441234598703
10.391731955325888,0.6079110596313385,-0.7058868824024709,-0.35513639522607343,26.051762893424684
10.40173362227038,0.6315433302168023,-0.6444708404742425,-0.5616829989147591,26.133879864392167
10.41173528921487,0.3753830135808381,-0.8495783712075149,-0.49622301228587296,24.818369789926336
10.42173695615936,0.4855972819502483,-0.8420124097729406,-0.24242558084451157,25.115486769085173
10.43173862310385,0.32884488894873315,-1.1123434281629903,-0.4757118370412999,25.48311274112737
10.441740290048342,0.26908610748964196,-0.9438054895054176,-0.46833439242575253,25.597226227018332
10.451741956992832,0.32723746810990273,-1.1335183565214613,-0.13217004345026556,25.447092366056598
10.461743623937323,0.2556833682867917,-1.1216232260422967,-0.11154307477044664,25.789241990812116
10.471745290881813,-0.016360403095752013,-1.1669906753911805,-0.13061088711329827,26.082222636112846
10.481746957826305,0.23920283096368153,-1.3094418289323468,-0.11825529727939073,26.457533866657673
10.491748624770796,0.17946649309691967,-1.3116816023987794,-0.09560451760372735,25.897620749052912
10.501750291715286,-0.07135401856182477,-1.103057283799552,0.03919140788508665,25.193958606521257
10.511751958659778,-0.019437768893882608,-1.1527476924588032,0.23155232434886971,25.558374052076964
10.521753625604267,-0.059602482237378254,-1.0698626362321402,0.15884269445120103,25.606297801922526
10.531755292548759,-0.13249516461230612,-1.114190667190446,0.4109669417960721,25.9131803689551
10.541756959493249,-0.26252411442371715,-1.0939651824883454,0.16069695961520103,25.861804691221206
10.55175862643774,-0.3227678382976603,-1.2326327537573916,0.30079151526023873,26.70475305634181
10.56176029338223,-0.30526371670218927,-1.0294237563809177,0.31294586696714877,25.460605382838473
10.571761960326722,-0.2313431661869485,-0.9385806905172185,0.28370420412480163,25.895517134143027
10.581763627271211,-0.3387875242368077,-0.6656773407748653,0.4126890323957745,26.892249714833188
10.591765294215703,-0.473188353610773,-0.7097934623919857,0.49875736083316535,25.43401448400929
10.601766961160195,-0.40021466265002104,-0.5354718456616037,0.5312645253953272,25.81088750185017
10.611768628104684,-0.8016117624757066,-0.5337946889165349,0.7101496708901623,25.277538967449594
10.621770295049176,-0.439213811555137,-0.5638791444639211,0.5460350043555299,25.80265911430484
10.631771961993666,-0.7632071701973009,-0.3758616318156364,0.6132043134139347,25.383113459594583
10.641773628938157,-0.65829907762408,-0.2553356395808288,0.49554305332398413,26.308198318921765
10.651775295882647,-0.7643853790232183,-0.2617806360218053,0.63976884147218,25.87000213739843
10.661776962827139,-0.8096742876897064,-0.0937204127990055,0.687392241432921,25.340157469869673
10.671778629771628,-0.5892258543082125,0.03721587694079485,0.46917941875726155,26.239621437325646
10.68178029671612,-0.774396587780509,0.3309156691081836,0.2787647252739655,25.92061973960486
10.69178196366061,-0.7124214477052795,0.07332816770362494,0.2791460917555199,26.31861243154749
10.701783630605101,-0.7682599280577833,0.5105340185035367,0.3129464385827618,25.27975479190889
10.711785297549593,-0.729345363791469,0.40136021281940865,0.2766370056616833,26.04934766560073
10.721786964494083,-0.7797811524475853,0.4585239057759752,0.24341989031359243,26.262921502836587
10.731788631438574,-0.9230676651236048,0.809128606124904,0.15944898931390253,25.6758425020249
10.741790298383064,-0.6993092285164105,0.8535901670120384,0.05219011490876666,25.269275425391
10.751791965327556,-0.8493249505656425,0.9881890006206521,-0.07487814279927708,25.889183088923204
10.761793632272045,-0.9534627772479227,1.0174838282658887,-0.03371678529909755,26.535218594532168
10.771795299216537,-0.8353217789464802,1.2097513148841026,0.05026055212601638,26.495263846010157
10.781796966161027,-0.6340112408342968,1.1170799059181806,-0.09251939816227903,25.729185378539658
10.791798633105518,-0.6875465372962783,1.0935780007869198,-0.19724734287488502,25.312920536735188
10.801800300050008,-0.7928654245622498,1.1816877458815265,-0.20001123950925304,25.749899360616293
10.8118019669945,-0.7753650035499438,1.2997236374048131,-0.3875449526020599,25.74223823272312
10.82180363393899,-0.7521186108765042,1.1149846055791084,-0.44320721662716733,26.210649724544155
10.831805300883481,-0.4889538991127927,1.1346867042823514,-0.502911226202813,25.945835861344342
10.841806967827972,-0.6323585523977612,1.165279256751094,-0.46965923487403183,25.63257536107164
10.851808634772462,-0.598824088219547,0.971395800360601,-0.5211173963824665,26.572169999647723
10.861810301716954,-0.5075422156948164,1.1708470275966762,-0.3723202477128636,26.1010421160185
10.871811968661444,-0.5530235071424142,0.9333380395039901,-0.5471311548029352,26.259287016000716
10.881813635605935,-0.5668609704087192,1.0822067307567165,-0.5784404806648179,25.189795346435872
10.891815302550425,-0.5225104527610548,1.1088178322549458,-0.29462105933229243,24.85082294563725
10.901816969494917,-0.46996902460264417,0.9109123363398209,-0.5170142909098595,25.354807830098377
10.911818636439406,-0.42463744905159395,1.054111259070188,-0.4320776562032837,25.84389195059208
10.921820303383898,-0.3045968840032746,0.6602789042210204,-0.37079335771070876,26.382881799581728
10.931821970328388,-0.32712009948689724,0.8382249666950274,-0.4915285103939276,24.934077251510065
10.94182363727288,-0.21269359866289844,0.6929976092634822,-0.21028333035016722,26.9120799688605
10.95182530421737,-0.246543262529777,0.35471189476866016,-0.2208258335764708,26.21134614122825
10.96182697116186,-0.1821806314580632,0.6935527978921225,-0.07491654246911575,26.816575345620663
10.971828638106352,-0.3406864974885302,0.3085058349487333,-0.24125398835735662,25.703762650027123
10.981830305050842,0.0005001806260810648,0.11674312522034419,-0.10326161021174021,26.408952213739337
10.991831971995333,-0.006390118500719938,-0.04842171411021262,-0.047295589902269584,26.209849074540724
11.001833638939823,0.1090176816823989,-0.04273873837313996,0.037908923201365144,26.586277032545546
11.011835305884315,-0.23018961644821678,-0.14631743998900487,-0.07137190086320533,26.070674460109835
11.021836972828805,0.3182579979133487,-0.23496598530672,0.14657388618763678,26.43426711743747
11.031838639773296,0.1450141939187055,-0.3844865303710992,0.05210705785195316,26.75879924403201
11.041840306717786,0.318716464170296,-0.39771130768588914,0.2867776558588702,25.892107815526018
11.051841973662277,0.15201186292824045,-0.6020302135348369,0.0903112775500681,26.348764367962524
11.061843640606769,0.36437345780702424,-0.853995768036466,0.16546658615460147,25.293608940979222
11.071845307551259,0.24365154224147223,-0.7668030396212762,0.4743978096313827,26.59864050474289
11.08184697449575,0.3311354583580029,-1.073306341944224,0.3735840629020645,27.23451994136263
11.09184864144024,0.6278812145685757,-0.8784453730159998,0.3584507817971003,25.64472067197322
11.101850308384732,0.4586524101414846,-1.0809024636049847,0.60607653678902,26.23094805860311
11.111851975329222,0.5388205350164432,-1.0270585697018877,0.5259534770489673,26.72652891593019
11.121853642273713,0.6413992704127457,-0.9631449417095528,0.5868182512261216,26.311595781473223
11.131855309218203,0.6390872726237639,-1.2308665822610354,0.4815216411853936,26.38798442329442
11.141856976162694,0.6373602228658354,-1.0612188574934784,0.7567866610530452,26.11943097608621
11.151858643107184,0.6891568563715625,-1.2316713262328352,0.4113387387097247,26.110298691083898
11.161860310051676,0.920768126073483,-1.0234495391561975,0.6217631232119912,26.290419560132566
11.171861976996166,0.6997442714261265,-1.2350770267539894,0.40964365663406566,26.363941494913348
11.181863643940657,0.7479104008873768,-1.2717617465425668,0.21223662706651214,25.761671258777973
11.191865310885149,0.8522870274886472,-1.0975935533901156,0.38192160359015154,26.328613594399346
11.201866977829638,0.8742453477184177,-1.1781455569545976,0.31579864508482597,27.155070482002902
11.21186864477413,0.8958520005404317,-1.1768868724639847,0.12539044046996412,26.170361406110725
11.22187031171862,0.8514101335404171,-1.0889987570312927,0.08086423714672794,25.770371106354673
11.231871978663111,0.6805156762961877,-0.9849033009411862,0.11044936238162383,26.322306005116353
11.241873645607601,0.9623005552253074,-0.7767471326072414,0.08594547499502024,26.049667864762903
11.251875312552093,0.6853099263057656,-1.0268079332211428,-0.2588481739822694,25.746708026424937
11.261876979496583,0.8280370081429234,-0.7461253312316898,0.030963629007742605,26.494311923100174
11.271878646441074,0.7170253758440843,-0.5943319149994828,-0.18519207323848635,26.078379162243287
11.281880313385564,0.7775901332138224,-0.5400343509167069,-0.32816933431285383,26.129898974186027
11.291881980330055,0.8053360791598512,-0.3259828817513164,-0.157064035673931,26.527648667815633
11.301883647274547,0.7900018677515452,-0.35793667784842736,-0.30574616290897294,25.692969300425343
11.311885314219037,0.7824725813591876,-0.25937791689938494,-0.22919531561915385,25.59733575345751
11.321886981163528,0.8811434698431496,-0.06997128573542996,-0.3489098400042005,26.81206267809959
11.331888648108018,0.7417760506895164,-0.006407118624878763,-0.4285544339204447,25.519657468626754
11.34189031505251,0.6459078566103786,0.057631436369260367,-0.47261547482578864,26.005124461738454
11.351891981997,0.737986794126873,0.2604391683210817,-0.43079573523359965,25.601873603069034
11.361893648941491,0.7292468238487473,0.2538702282693121,-0.5345869794789554,26.26699589071154
11.37189531588598,0.4538513139139417,0.36547013304348713,-0.5848767721690469,26.732304616711787
11.381896982830472,0.6003880398908634,0.47746555126051066,-0.4371323389121173,26.582595377111186
11.391898649774962,0.5726668426539434,0.7645407372592741,-0.5032174561966796,27.730453976539856
11.401900316719454,0.43271075899146283,0.400514068711966,-0.46834658753571873,27.086005369458807
11.411901983663945,0.5581295768298586,0.8491413457596265,-0.3382585283337918,26.084937996798615
11.421903650608435,0.3619848159337503,0.8927861051781153,-0.4270224278501079,25.9598975486142
11.431905317552927,0.34449119444727205,0.7931526964942792,-0.3760126384798088,27.91961560620004
11.441906984497416,0.2682591144337741,1.055558364373029,-0.39340661037641245,27.105342368925236
11.451908651441908,0.2396295740346186,1.1264095046523979,-0.2410329688882441,26.876463738270697
11.461910318386398,0.08000965972531031,1.1824678475743788,-0.19530744564241567,26.626864942576727
11.47191198533089,-0.003551081423670416,0.8930151142640976,-0.08276297443742123,26.73379715278656
11.481913652275379,0.25016685902690494,1.3192471860803607,-0.17057691665385064,25.86353399460541
11.49191531921987,-0.04407557158777415,1.1227444869951573,-0.09649190451919566,26.690561113921042
11.50191698616436,-0.10877482539996988,1.2684609264464601,0.09125735430569165,26.655064462170113
11.511918653108852,-0.2751927155649245,1.2665444294500787,0.09982873844120155,26.174722622127295
11.521920320053344,-0.17373169876561237,1.0868125604247043,0.0453724535493841,26.364807852753916
11.531921986997833,-0.29169270801658587,1.2121452208368586,0.3258910760484991,27.39887378028306
11.541923653942325,-0.04410119292480724,1.0689906109736629,0.08155200717621647,26.585847810688765
11.551925320886815,-0.1554176306355319,0.8520090484640065,0.3820209320564223,27.69110551027792
11.561926987831306,-0.37229877639304043,1.1181235964543876,0.22447721720215164,25.792199350062443
11.571928654775796,-0.12412645276003204,0.8571565356764665,0.5814459385673043,26.408427528408872
11.581930321720288,-0.2957005125401425,0.7742244322771533,0.2740779686509226,25.902740968428837
11.591931988664777,-0.46931225660966513,0.7367468707418288,0.5726733112576453,26.078490436949664
11.601933655609269,-0.7279972071946381,0.7147573296406479,0.47097848051311264,26.275853758834195
11.611935322553759,-0.28830259591823504,0.5861821849735538,0.45661645962809827,26.85429963397969
11.62193698949825,-0.6936517077312214,0.5458359088636063,0.5181693235436349,26.836679112100356
11.63193865644274,-0.7543420883553256,0.25184040790017015,0.5612905512446211,26.370174808266313
11.641940323387232,-0.5203244673492464,0.20288540126524496,0.3982733681649606,25.602406607661315
11.651941990331723,-0.40892770306504234,0.15439843272689513,0.3900376780394105,27.461571461666644
11.661943657276213,-0.5422195265256385,0.24318706873768392,0.5120398194914603,26.586193273043463
11.671945324220705,-0.649312663724668,-0.0710568402098777,0.24475486415742959,26.177212868117614
11.681946991165194,-0.6684988910187464,-0.0636974246384128,0.3189213826583207,26.879037134207234
11.691948658109686,-0.6620295790960478,-0.2793790556532768,0.63731519341783,26.849939342143646
11.701950325054176,-0.6879245702561929,-0.4401005100933519,0.18709016125911593,26.59245451772232
11.711951991998667,-0.7491291379272358,-0.5214289396728135,0.3448380679465122,26.834064991563892
11.721953658943157,-0.7771905547464438,-0.6142096045116119,0.1139996861003878,26.188221800025936
11.731955325887649,-0.8011229872476623,-0.6323101514983229,0.1633134227981215,27.15156064680088
11.741956992832138,-0.8743751333042045,-0.6443704124183742,0.11588527680264166,26.278968219596504
11.75195865977663,-0.8280069272700014,-0.82807836403621,0.10059029373323233,26.4803442889118
11.761960326721121,-0.9670377984885873,-0.8198816979193563,-0.09489172218561231,27.113186955872816
11.771961993665611,-0.8022294041937145,-1.101277694367629,0.06264224469122448,27.39635181978017
11.781963660610103,-0.8827796115528086,-1.1035493902901679,-0.2544103555927677,27.59277504841008
11.791965327554593,-0.8827096846281038,-1.1823739172533487,-0.22820132690848016,27.333231230553682
11.801966994499084,-0.7397424583336506,-1.1165013082635245,-0.27927277201187284,26.648669071169454
11.811968661443574,-0.6009213470989865,-1.2116510667395488,-0.463381664041213,26.045490172896923
11.821970328388065,-0.6277577221241094,-1.120147831758341,-0.42161622529058806,27.523764327886596
11.831971995332555,-0.8532664129778021,-1.2930014024301897,-0.4125214316081955,27.511742433903336
11.841973662277047,-0.7690575724807427,-1.191720283071645,-0.5007659906720701,26.495492140174374
11.851975329221537,-0.5472506069076919,-1.1128402133175384,-0.23512429379033178,27.297088185353534
11.861976996166028,-0.708277560795473,-1.3630681034237355,-0.5771818117061794,26.67534569326747
11.87197866311052,-0.5987849246757276,-0.9091175849108626,-0.3816972186633032,27.596941234857503
11.88198033005501,-0.4853339518114985,-1.104382910949848,-0.412431665562607,26.593665751593367
11.891981996999501,-0.5990579766567623,-1.22380428517511,-0.49004424416605785,27.845145913714997
11.90198366394399,-0.45158764254884537,-0.9416553213573784,-0.5580503248157113,27.253529441851214
11.911985330888482,-0.5536049997515746,-0.8817834258145313,-0.52378756344006,27.763817015880555
11.921986997832972,-0.4367575719136454,-0.8131211976607358,-0.46714016794321567,26.637647730882026
11.931988664777464,-0.2995741256865484,-0.6184696238439994,-0.5557465776301083,27.076489109000896
11.941990331721954,-0.44447428237729913,-0.5491297229322298,-0.43339778796050277,26.393688642715052
11.951991998666445,-0.19362419494751407,-0.4948326892221729,-0.4319235268296199,27.304602625148668
11.961993665610935,-0.1911939142252283,-0.37569271475561006,-0.09523777722021351,27.336334175789045
11.971995332555426,-0.08479255067539393,-0.32349661232470217,-0.1105027517546161,28.089456265754315
11.981996999499916,-0.06790868027947614,-0.025084496358132757,-0.03355634296929033,27.136020426413484
11.991998666444408,0.09621189373986855,-0.23832680777067772,0.008694001064045352,27.26102901388729
12.0020003333889,0.02257695783452554,0.03658706494975612,0.029263904137667784,26.667473115662915
12.01200200033339,0.017330916510736226,0.14195260364778264,0.22119325358476494,27.17740923369392
12.02200366727788,0.12248024073918251,0.32840375854140663,0.07542186926158034,26.72052988737356
12.03200533422237,0.21412405981055474,0.2721221153728326,0.20638464092122788,26.972086368031277
12.042007001166862,0.2135931852864938,0.28840658794220586,0.32655548629608144,27.005018723479818
12.052008668111352,0.260855322302426,0.5806135128875975,0.17188746723521675,26.745137624969797
12.062010335055843,0.2336721644395739,0.6901955835343254,0.6610300765934065,26.956215904321667
12.072012002000333,0.28345678046127154,0.9022952377003695,0.39604738115729476,26.74047305469346
12.082013668944825,0.25398113285140744,0.710872969348654,0.44300644921789556,26.741556216252146
12.092015335889315,0.6121377118552831,1.0305126088341292,0.5833472043325552,27.472978969091717
12.102017002833806,0.3540061665519775,1.2207940322373672,0.5707868660349822,27.025501926823342
12.112018669778298,0.44842579698199797,1.0065480401709828,0.4971698387287113,27.114400178240516
12.122020336722787,0.4831555460856055,0.9662296532953848,0.5126624798429182,26.21520994622331
12.132022003667279,0.6795776194356788,1.0959003735361628,0.34763978673499357,27.15851001926416
12.142023670611769,0.5933495501785723,1.1691803580214886,0.4329559312351814,27.214834226769955
12.15202533755626,0.7779191594836405,1.2449719497720517,0.5231632806050304,26.753217831451273
12.16202700450075,0.6135178001139447,1.139713438267805,0.4912338911478511,27.99758952633929
12.172028671445242,0.7338002230155583,1.35398786504104,0.5373141776144078,25.813071392795134
12.182030338389731,0.6446132491838661,1.0759886494292046,0.36495039763267806,27.35240161762959
12.192032005334223,0.9620353898732626,0.9919519052689778,0.19412725007784357,27.319076065225012
12.202033672278713,0.6451820526694656,1.244622188567713,0.3891332581487664,27.235843232920942
12.212035339223204,0.808329448528582,0.864499384657296,0.3732016378947113,27.055458621169812
12.222037006167696,0.8510616910390514,1.0198632958694518,0.2619276290345224,27.244914737497755
12.232038673112186,0.8362908731022937,1.2911225284692542,0.09553519954967732,27.405807842421485
12.242040340056677,0.780470961834538,0.9085324877349942,0.15436727186071109,26.6108434710992
12.252042007001167,0.7869520842046213,0.7199649265126739,0.330062147423897,27.125374286755097
12.262043673945659,0.8020917009385442,0.7412190722513411,-0.06386884919246189,26.886029241024566
12.272045340890148,0.7776375047074758,0.6501635985262583,-0.2679236822755312,26.432636546540408
12.28204700783464,0.8802247304938973,0.5737756032021974,-0.2545871029150245,27.33986064443137
12.29204867477913,0.9932937560277441,0.5214519110288722,-0.18952816965947877,26.70077211180492
12.302050341723621,0.7018482143849384,0.24478753864496253,-0.4646966633244187,26.23562134411606
12.312052008668111,0.6029821445971494,0.4078303985374421,-0.33461711805829275,26.716515335729014
12.322053675612603,0.7105780203309892,0.15184120009081992,-0.35531883710338685,26.58806276879611
12.332055342557092,0.9539808275229866,0.08713279032171499,-0.2754299352081582,27.503114784460394
12.342057009501584,0.5894983569394643,-0.1613662722827145,-0.326745304853825,27.066756368597577
12.352058676446076,0.8049888787771269,-0.08204279655409327,-0.3929073645125129,27.68255709531973
12.362060343390565,0.7775277820360149,-0.34664528648554327,-0.709672394980255,26.659214889093803
12.372062010335057,0.5206721416990916,-0.40059419394388013,-0.4075539567566635,27.430626536455467
12.382063677279547,0.5969284502541288,-0.6252661259685807,-0.42748015758604346,28.414322925858823
12.392065344224038,0.6647370184974698,-0.7305315058882647,-0.4629524156190785,27.17341880381536
12.402067011168528,0.423870376164178,-0.6552994062674246,-0.6443771818706681,27.427039301868643
12.41206867811302,0.39948785377127094,-0.855332732379561,-0.5244044514591194,27.343707169854493
12.42207034505751,0.3180830457180141,-0.9760058269957114,-0.5317339302931259,26.286565278677365
12.432072012002001,0.22969532510495466,-1.0266854501497638,-0.5783292980339517,27.29108730753497
12.44207367894649,0.21985568847112713,-0.9556705218772701,-0.33295198131801773,27.15190362456359
12.452075345890982,0.11487757635366029,-1.142562300526292,-0.3630266892552717,26.869219647384256
